{
  "resourceType": "Bundle",
  "id": "befund-bundle-1",
  "type": "transaction",
  "timestamp": "2022-07-14T12:11:00+01:00",
  "entry": [
    {
      "fullUrl": "https://www.medizininformatik-initiative.de/fhir/example-mii-molgen-molekulargenetischer-befundbericht-1",
      "resource": {
        "resourceType": "DiagnosticReport",
        "id": "example-mii-molgen-molekulargenetischer-befundbericht-1",
        "meta": {
          "profile": [
            "https://www.medizininformatik-initiative.de/fhir/ext/modul-molgen/StructureDefinition/molekulargenetischer-befundbericht",
            "http://hl7.org/fhir/uv/genomics-reporting/StructureDefinition/genomics-report"
          ]
        },
        "category": [
          {
            "coding": [
              {
                "system": "http://terminology.hl7.org/CodeSystem/v2-0074",
                "code": "GE",
                "display": "Genetics"
              }
            ]
          }
        ],
        "extension": [
          {
            "url": "http://hl7.org/fhir/uv/genomics-reporting/StructureDefinition/recommended-action",
            "valueReference": {
              "reference": "Task/example-mii-molgen-medikationsempfehlung-1"
            }
          },
          {
            "url": "http://hl7.org/fhir/uv/genomics-reporting/StructureDefinition/recommended-action",
            "valueReference": {
              "reference": "Task/example-mii-molgen-folgemassnahme-1"
            }
          },
          {
            "url": "http://hl7.org/fhir/StructureDefinition/workflow-supportingInfo",
            "valueReference": {
              "reference": "example-mii-molgen-family-member-history-1"
            }
          }
        ],
        "basedOn": [
          {
            "reference": "ServiceRequest/example-mii-molgen-anforderung-1"
          }
        ],
        "status": "final",
        "code": {
          "coding": [
            {
              "code": "51969-4",
              "system": "http://loinc.org",
              "display": "Genetic analysis report"
            }
          ]
        },
        "subject": {
          "reference": "Patient/example-mii-molgen-patient"
        },
        "performer": [
          {
            "reference": "Practitioner/example-mii-molgen-practitioner-lab"
          }
        ],
        "specimen": [
          {
            "reference": "Specimen/example-mii-molgen-specimen-1"
          }
        ],
        "result": [
          {
            "reference": "Observation/mii-exa-molgen-ergebnis-zusammenfassung-1"
          },
          {
            "reference": "Observation/example-mii-molgen-diagnostische-implikation-1"
          },
          {
            "reference": "Observation/example-mii-molgen-therapeutische-implikation-1"
          },
          {
            "reference": "Observation/example-mii-molgen-variante-1"
          },
          {
            "reference": "Observation/example-mii-molgen-untersuchte-region-1"
          },
          {
            "reference": "Observation/example-mii-molgen-genotyp-1"
          },
          {
            "reference": "Observation/example-mii-molgen-mutationslast-1"
          },
          {
            "reference": "Observation/example-mii-molgen-mikrosatelliteninstabilitaet-1"
          }
        ],
        "conclusion": "BRAF p.V600E Mutation liegt vor. Bitte Therapieoption mit einem BRAF-Inhibitor prüfen."
      },
      "request": {
        "method": "POST",
        "url": "DiagnosticReport"
      }
    },
    {
      "fullUrl": "https://www.medizininformatik-initiative.de/fhir/example-mii-molgen-medikationsempfehlung-1",
      "resource": {
        "resourceType": "Task",
        "id": "example-mii-molgen-medikationsempfehlung-1",
        "meta": {
          "profile": [
            "https://www.medizininformatik-initiative.de/fhir/ext/modul-molgen/StructureDefinition/medikationsempfehlung",
            "http://hl7.org/fhir/uv/genomics-reporting/StructureDefinition/medication-recommendation"
          ]
        },
        "status": "requested",
        "intent": "proposal",
        "basedOn": [
          {
            "reference": "servicerequest/example"
          }
        ],
        "code": {
          "coding": [
            {
              "code": "LA26421-0",
              "system": "http://loinc.org",
              "display": "Consider alternative medication"
            }
          ],
          "text": "Alternative Medikation in Erwägung ziehen"
        },
        "for": {
          "reference": "Patient/example-mii-molgen-patient"
        },
        "reasonReference": {
          "reference": "Observation/example-mii-molgen-therapeutische-implikation-1"
        }
      },
      "request": {
        "method": "POST",
        "url": "Task"
      }
    },
    {
      "fullUrl": "https://www.medizininformatik-initiative.de/fhir/example-mii-molgen-folgemassnahme-1",
      "resource": {
        "resourceType": "Task",
        "id": "example-mii-molgen-folgemassnahme-1",
        "meta": {
          "profile": [
            "https://www.medizininformatik-initiative.de/fhir/ext/modul-molgen/StructureDefinition/empfohlene-folgemassnahme",
            "http://hl7.org/fhir/uv/genomics-reporting/StructureDefinition/followup-recommendation"
          ]
        },
        "status": "requested",
        "intent": "proposal",
        "basedOn": [
          {
            "reference": "servicerequest/example"
          }
        ],
        "code": {
          "coding": [
            {
              "code": "LA14020-4",
              "system": "http://loinc.org",
              "display": "Genetic counseling recommended"
            }
          ]
        },
        "description": "Genetische Beratung empfohlen mit Dr. Rosalind Franklin",
        "for": {
          "reference": "Patient/example-mii-molgen-patient"
        },
        "reasonReference": {
          "reference": "Observation/example-mii-molgen-therapeutische-implikation-1"
        }
      },
      "request": {
        "method": "POST",
        "url": "Task"
      }
    },
    {
      "fullUrl": "https://www.medizininformatik-initiative.de/fhir/example-mii-molgen-family-member-history-1",
      "resource": {
        "resourceType": "FamilyMemberHistory",
        "id": "mii-exa-molgen-family-member-history-1",
        "meta": {
          "profile": [
            "https://www.medizininformatik-initiative.de/fhir/ext/modul-molgen/StructureDefinition/familienanamnese"
          ]
        },
        "status": "completed",
        "patient": {
          "reference": "Patient/example-mii-molgen-patient"
        },
        "date": "2022-04-07",
        "relationship": {
          "coding": [
            {
              "code": "72705000",
              "system": "http://snomed.info/sct",
              "display": "Mother (person)"
            },
            {
              "code": "MTH",
              "system": "http://terminology.hl7.org/CodeSystem/v3-RoleCode",
              "display": "mother"
            }
          ]
        },
        "sex": {
          "coding": [
            {
              "code": "female",
              "system": "http://hl7.org/fhir/administrative-gender"
            },
            {
              "code": "248152002",
              "system": "http://snomed.info/sct",
              "display": "Female (finding)"
            }
          ]
        },
        "deceasedBoolean": true,
        "reasonCode": [
          {
            "coding": [
              {
                "code": "447886005",
                "system": "http://snomed.info/sct",
                "display": "Adenocarcinoma of anorectum (disorder)"
              }
            ]
          }
        ],
        "condition": [
          {
            "code": {
              "coding": [
                {
                  "code": "830150003",
                  "system": "http://snomed.info/sct",
                  "display": "Malignant melanoma with B-Raf proto-oncogene, serine/threonine kinase V600E mutation (disorder)"
                }
              ]
            },
            "contributedToDeath": true
          }
        ]
      },
      "request": {
        "method": "POST",
        "url": "FamilyMemberHistory"
      }
    },
    {
      "fullUrl": "https://www.medizininformatik-initiative.de/fhir/example-mii-molgen-anforderung-1",
      "resource": {
        "resourceType": "ServiceRequest",
        "id": "example-mii-molgen-anforderung-1",
        "meta": {
          "profile": [
            "https://www.medizininformatik-initiative.de/fhir/ext/modul-molgen/StructureDefinition/anforderung-genetischer-test"
          ]
        },
        "status": "active",
        "intent": "order",
        "category": [
          {
            "coding": [
              {
                "code": "108252007",
                "system": "http://snomed.info/sct",
                "display": "Laboratory procedure (procedure)"
              }
            ]
          }
        ],
        "code": {
          "coding": [
            {
              "code": "405825005",
              "system": "http://snomed.info/sct",
              "display": "Molecular genetic test (procedure)"
            },
            {
              "code": "53844-7",
              "system": "http://loinc.org",
              "display": "BRAF gene targeted mutation analysis in Blood or Tissue by Molecular genetics method"
            },
            {
              "code": "HGNC:1097",
              "system": "http://www.genenames.org/geneId",
              "display": "BRAF"
            }
          ],
          "text": "BRAF: Exon 15 (Codon 600)"
        },
        "subject": {
          "reference": "Patient/example-mii-molgen-patient"
        },
        "authoredOn": "2022-04-07",
        "requester": {
          "reference": "Practitioner/example-mii-molgen-practitioner-physician"
        },
        "reasonCode": [
          {
            "coding": [
              {
                "code": "447886005",
                "system": "http://snomed.info/sct",
                "display": "Adenocarcinoma of anorectum (disorder)"
              }
            ]
          }
        ],
        "specimen": [
          {
            "reference": "Specimen/example-mii-molgen-specimen-1"
          }
        ],
        "supportingInfo": [
          {
            "reference": "FamilyMemberHistory/mii-exa-molgen-family-member-history-1"
          }
        ]
      },
      "request": {
        "method": "POST",
        "url": "ServiceRequest"
      }
    },
    {
      "fullUrl": "https://www.medizininformatik-initiative.de/fhir/example-mii-molgen-patient",
      "resource": {
        "resourceType": "Patient",
        "id": "example-mii-molgen-patient",
        "meta": {
          "profile": [
            "https://www.medizininformatik-initiative.de/fhir/core/modul-person/StructureDefinition/Patient"
          ]
        },
        "identifier": [
          {
            "use": "usual",
            "type": {
              "coding": [
                {
                  "code": "MR",
                  "system": "http://terminology.hl7.org/CodeSystem/v2-0203"
                }
              ]
            },
            "system": "https://www.medizininformatik-initiative.de/fhir/sid/patienten",
            "value": "42285243",
            "assigner": {
              "display": "Charité - Universitätsmedizin Berlin",
              "identifier": {
                "system": "https://www.medizininformatik-initiative.de/fhir/core/CodeSystem/core-location-identifier",
                "value": "Charité"
              }
            }
          },
          {
            "use": "official",
            "type": {
              "coding": [
                {
                  "code": "GKV",
                  "system": "http://fhir.de/CodeSystem/identifier-type-de-basis"
                }
              ]
            },
            "system": "http://fhir.de/sid/gkv/kvid-10",
            "value": "Z234567890",
            "assigner": {
              "identifier": {
                "use": "official",
                "value": "109519005",
                "system": "http://fhir.de/sid/arge-ik/iknr"
              }
            }
          },
          {
            "use": "secondary",
            "type": {
              "coding": [
                {
                  "code": "PKV",
                  "system": "http://fhir.de/CodeSystem/identifier-type-de-basis"
                }
              ]
            },
            "value": "123456",
            "assigner": {
              "display": "Signal Iduna"
            }
          }
        ],
        "name": [
          {
            "use": "official",
            "family": "Van-der-Dussen",
            "_family": {
              "extension": [
                {
                  "url": "http://hl7.org/fhir/StructureDefinition/humanname-own-name",
                  "valueString": "Van-der-Dussen"
                }
              ]
            },
            "given": [
              "Maja",
              "Julia"
            ],
            "prefix": [
              "Prof. Dr. med."
            ],
            "_prefix": [
              {
                "extension": [
                  {
                    "url": "http://hl7.org/fhir/StructureDefinition/iso21090-EN-qualifier",
                    "valueCode": "AC"
                  }
                ]
              }
            ]
          },
          {
            "use": "maiden",
            "family": "Haffer"
          }
        ],
        "gender": "female",
        "birthDate": "1968-09-19",
        "deceasedBoolean": false,
        "address": [
          {
            "type": "both",
            "line": [
              "Anna-Louisa-Karsch Str. 2"
            ],
            "city": "Berlin",
            "state": "DE-BE",
            "postalCode": "10178",
            "country": "DE"
          }
        ]
      },
      "request": {
        "method": "POST",
        "url": "Patient"
      }
    },
    {
      "fullUrl": "https://www.medizininformatik-initiative.de/fhir/example-mii-molgen-practitioner-lab",
      "resource": {
        "resourceType": "Practitioner",
        "id": "example-mii-molgen-practitioner-lab",
        "active": true,
        "name": [
          {
            "use": "official",
            "text": "Dr. Daniel Schmidt",
            "family": "Schmidt",
            "given": [
              "Daniel"
            ],
            "prefix": [
              "Dr."
            ]
          }
        ]
      },
      "request": {
        "method": "POST",
        "url": "Practitioner"
      }
    },
    {
      "fullUrl": "https://www.medizininformatik-initiative.de/fhir/example-mii-molgen-specimen-1",
      "resource": {
        "resourceType": "Specimen",
        "id": "example-mii-molgen-specimen-1",
        "meta": {
          "profile": [
            "https://www.medizininformatik-initiative.de/fhir/ext/modul-biobank/StructureDefinition/SpecimenCore"
          ]
        },
        "type": {
          "coding": [
            {
              "system": "http://snomed.info/sct",
              "code": "128159001",
              "display": "Tissue specimen from colon (specimen)"
            }
          ]
        },
        "collection": {
          "collectedDateTime": "2022-03-24T12:44:00+01:00",
          "bodySite": {
            "coding": [
              {
                "code": "71854001",
                "system": "http://snomed.info/sct",
                "display": "Colon structure (body structure)"
              }
            ]
          }
        },
        "identifier": [
          {
            "system": "https://biobank.uk-musterstadt.de/fhir/sid/proben",
            "value": "5432"
          }
        ],
        "status": "available",
        "subject": {
          "reference": "Patient/example-mii-molgen-patient"
        }
      },
      "request": {
        "method": "POST",
        "url": "Specimen"
      }
    },
    {
      "fullUrl": "https://www.medizininformatik-initiative.de/fhir/example-mii-molgen-diagnostische-implikation-1",
      "resource": {
        "resourceType": "Observation",
        "id": "example-mii-molgen-diagnostische-implikation-1",
        "meta": {
          "profile": [
            "https://www.medizininformatik-initiative.de/fhir/ext/modul-molgen/StructureDefinition/diagnostische-implikation",
            "http://hl7.org/fhir/uv/genomics-reporting/StructureDefinition/diagnostic-implication"
          ]
        },
        "code": {
          "coding": [
            {
              "system": "http://hl7.org/fhir/uv/genomics-reporting/CodeSystem/tbd-codes-cs",
              "code": "diagnostic-implication",
              "display": "Diagnostische Implikation"
            }
          ]
        },
        "category": [
          {
            "coding": [
              {
                "system": "http://terminology.hl7.org/CodeSystem/observation-category",
                "code": "laboratory",
                "display": "Laboratory"
              }
            ]
          }
        ],
        "component": [
          {
            "code": {
              "coding": [
                {
                  "system": "http://hl7.org/fhir/uv/genomics-reporting/CodeSystem/tbd-codes-cs",
                  "code": "conclusion-string"
                }
              ]
            },
            "valueString": "Nachweis einer aktivierenden Mutation BRAF V600E"
          }
        ],
        "status": "final",
        "subject": {
          "reference": "Patient/example-mii-molgen-patient"
        },
        "performer": [
          {
            "reference": "Practitioner/example-mii-molgen-practitioner-lab"
          }
        ],
        "derivedFrom": [
          {
            "reference": "Observation/example-mii-molgen-variante-1"
          }
        ]
      },
      "request": {
        "method": "POST",
        "url": "Observation"
      }
    },
    {
      "fullUrl": "https://www.medizininformatik-initiative.de/fhir/example-mii-molgen-therapeutische-implikation-1",
      "resource": {
        "resourceType": "Observation",
        "id": "example-mii-molgen-therapeutische-implikation-1",
        "meta": {
          "profile": [
            "https://www.medizininformatik-initiative.de/fhir/ext/modul-molgen/StructureDefinition/therapeutische-implikation",
            "http://hl7.org/fhir/uv/genomics-reporting/StructureDefinition/therapeutic-implication"
          ]
        },
        "code": {
          "coding": [
            {
              "system": "http://hl7.org/fhir/uv/genomics-reporting/CodeSystem/tbd-codes-cs",
              "code": "therapeutic-implication",
              "display": "Therapeutische Implikation"
            }
          ]
        },
        "category": [
          {
            "coding": [
              {
                "system": "http://terminology.hl7.org/CodeSystem/observation-category",
                "code": "laboratory",
                "display": "Laboratory"
              }
            ]
          }
        ],
        "component": [
          {
            "code": {
              "coding": [
                {
                  "system": "http://hl7.org/fhir/uv/genomics-reporting/CodeSystem/tbd-codes-cs",
                  "code": "conclusion-string"
                }
              ]
            },
            "valueString": "Nachweis einer aktivierenden Mutation BRAF V600E. Triple-Therapie mit einem EGFR-Antikörper sowie einem BRAF- und einem MEK- Inhibitor prüfen."
          },
          {
            "code": {
              "coding": [
                {
                  "system": "http://loinc.org",
                  "code": "51963-7",
                  "display": "Medication assessed [ID]"
                }
              ]
            },
            "valueCodeableConcept": {
              "coding": [
                {
                  "code": "L01EC",
                  "system": "http://www.whocc.no/atc",
                  "display": "B-Raf serine-threonine kinase (BRAF) inhibitors"
                },
                {
                  "code": "703645005",
                  "system": "http://snomed.info/sct",
                  "display": "Product containing B-Raf inhibitor (product)"
                }
              ],
              "text": "BRAF Inhibitor"
            }
          },
          {
            "code": {
              "coding": [
                {
                  "system": "http://loinc.org",
                  "code": "51963-7",
                  "display": "Medication assessed [ID]"
                }
              ]
            },
            "valueCodeableConcept": {
              "coding": [
                {
                  "code": "L01FE",
                  "system": "http://www.whocc.no/atc",
                  "display": "EGFR (Epidermal Growth Factor Receptor) inhibitors"
                }
              ]
            }
          },
          {
            "code": {
              "coding": [
                {
                  "system": "http://loinc.org",
                  "code": "51963-7",
                  "display": "Medication assessed [ID]"
                }
              ]
            },
            "valueCodeableConcept": {
              "coding": [
                {
                  "code": "L01EE",
                  "system": "http://www.whocc.no/atc",
                  "display": "Mitogen-activated protein kinase (MEK) inhibitors"
                }
              ]
            }
          }
        ],
        "status": "final",
        "subject": {
          "reference": "Patient/example-mii-molgen-patient"
        },
        "performer": [
          {
            "reference": "Practitioner/example-mii-molgen-practitioner-lab"
          }
        ],
        "derivedFrom": [
          {
            "reference": "Observation/example-mii-molgen-variante-1"
          }
        ]
      },
      "request": {
        "method": "POST",
        "url": "Observation"
      }
    },
    {
      "fullUrl": "https://www.medizininformatik-initiative.de/fhir/example-mii-molgen-variante-1",
      "resource": {
        "resourceType": "Observation",
        "id": "example-mii-molgen-variante-1",
        "meta": {
          "profile": [
            "https://www.medizininformatik-initiative.de/fhir/ext/modul-molgen/StructureDefinition/variante",
            "http://hl7.org/fhir/uv/genomics-reporting/StructureDefinition/variant"
          ]
        },
        "code": {
          "coding": [
            {
              "system": "http://loinc.org",
              "code": "69548-6",
              "display": "Genetic variant assessment"
            }
          ]
        },
        "category": [
          {
            "coding": [
              {
                "system": "http://terminology.hl7.org/CodeSystem/observation-category",
                "code": "laboratory",
                "display": "Laboratory"
              }
            ]
          }
        ],
        "component": [
          {
            "code": {
              "coding": [
                {
                  "system": "http://loinc.org",
                  "code": "48018-6",
                  "display": "Gene studied [ID]"
                }
              ]
            },
            "valueCodeableConcept": {
              "coding": [
                {
                  "code": "HGNC:1097",
                  "system": "http://www.genenames.org/geneId",
                  "display": "BRAF"
                }
              ]
            }
          },
          {
            "code": {
              "coding": [
                {
                  "system": "http://loinc.org",
                  "code": "48013-7",
                  "display": "Genomic reference sequence [ID]"
                }
              ]
            },
            "valueCodeableConcept": {
              "coding": [
                {
                  "code": "NM_004333.4",
                  "system": "http://www.ncbi.nlm.nih.gov/refseq"
                }
              ]
            }
          },
          {
            "code": {
              "coding": [
                {
                  "code": "47999-8",
                  "system": "http://loinc.org",
                  "display": "DNA region name [Identifier]"
                }
              ]
            },
            "valueString": "Exon #15"
          },
          {
            "code": {
              "coding": [
                {
                  "code": "47999-8",
                  "system": "http://loinc.org",
                  "display": "DNA region name [Identifier]"
                }
              ]
            },
            "valueString": "Codon #582 - #612"
          },
          {
            "code": {
              "coding": [
                {
                  "system": "http://loinc.org",
                  "code": "48004-6",
                  "display": "DNA change (c.HGVS)"
                }
              ]
            },
            "valueCodeableConcept": {
              "coding": [
                {
                  "code": "NM_004333.4:c.1799T>A",
                  "system": "http://varnomen.hgvs.org"
                }
              ]
            }
          },
          {
            "code": {
              "coding": [
                {
                  "system": "http://loinc.org",
                  "code": "48005-3",
                  "display": "Amino acid change (pHGVS)"
                }
              ]
            },
            "valueCodeableConcept": {
              "coding": [
                {
                  "code": "p.(Val600Glu)",
                  "system": "http://varnomen.hgvs.org"
                }
              ]
            }
          },
          {
            "code": {
              "coding": [
                {
                  "system": "http://loinc.org",
                  "code": "81258-6",
                  "display": "Sample variant allelic frequency [NFr]"
                }
              ]
            },
            "valueQuantity": {
              "value": 30.25,
              "code": "%",
              "system": "http://unitsofmeasure.org"
            }
          },
          {
            "code": {
              "coding": [
                {
                  "system": "http://loinc.org",
                  "code": "48001-2",
                  "display": "Cytogenetic (chromosome) location"
                }
              ]
            },
            "valueCodeableConcept": {
              "coding": [
                {
                  "code": "7q34",
                  "system": "urn:oid:2.16.840.1.113883.6.335"
                }
              ]
            }
          },
          {
            "code": {
              "coding": [
                {
                  "system": "http://loinc.org",
                  "code": "48019-4",
                  "display": "DNA change type"
                }
              ]
            },
            "valueCodeableConcept": {
              "coding": [
                {
                  "code": "SO:1000008",
                  "system": "http://sequenceontology.org",
                  "display": "point_mutation"
                }
              ]
            }
          },
          {
            "code": {
              "coding": [
                {
                  "system": "http://loinc.org",
                  "code": "48006-1",
                  "display": "Amino acid change [Type]"
                }
              ]
            },
            "valueCodeableConcept": {
              "coding": [
                {
                  "code": "LA6698-0",
                  "system": "http://loinc.org",
                  "display": "Missense"
                }
              ]
            }
          },
          {
            "code": {
              "coding": [
                {
                  "system": "http://loinc.org",
                  "code": "81252-9",
                  "display": "Discrete genetic variant"
                }
              ]
            },
            "valueCodeableConcept": {
              "coding": [
                {
                  "code": "rs113488022",
                  "system": "http://www.ncbi.nlm.nih.gov/projects/SNP"
                }
              ]
            }
          }
        ],
        "basedOn": [
          {
            "reference": "ServiceRequest/example-mii-molgen-anforderung-1"
          }
        ],
        "status": "final",
        "subject": {
          "reference": "Patient/example-mii-molgen-patient"
        },
        "valueCodeableConcept": {
          "coding": [
            {
              "code": "LA9633-4",
              "system": "http://loinc.org",
              "display": "Present"
            }
          ]
        },
        "method": {
          "coding": [
            {
              "code": "LA26398-0",
              "system": "http://loinc.org",
              "display": "Sequencing"
            }
          ]
        },
        "specimen": {
          "reference": "Specimen/example-mii-molgen-specimen-1"
        },
        "device": {
          "reference": "Device/example-mii-molgen-device-sequencer"
        },
        "derivedFrom": [
          {
            "reference": "Observation/example-mii-molgen-untersuchte-region-1"
          }
        ]
      },
      "request": {
        "method": "POST",
        "url": "Observation"
      }
    },
    {
      "fullUrl": "https://www.medizininformatik-initiative.de/fhir/example-mii-molgen-untersuchte-region-1",
      "resource": {
        "resourceType": "Observation",
        "id": "example-mii-molgen-untersuchte-region-1",
        "meta": {
          "profile": [
            "https://www.medizininformatik-initiative.de/fhir/ext/modul-molgen/StructureDefinition/untersuchte-region",
            "http://hl7.org/fhir/uv/genomics-reporting/StructureDefinition/region-studied"
          ]
        },
        "code": {
          "coding": [
            {
              "system": "http://loinc.org",
              "code": "53041-0",
              "display": "DNA region of interest panel"
            }
          ]
        },
        "category": [
          {
            "coding": [
              {
                "system": "http://terminology.hl7.org/CodeSystem/observation-category",
                "code": "laboratory",
                "display": "Laboratory"
              }
            ]
          }
        ],
        "component": [
          {
            "code": {
              "coding": [
                {
                  "system": "http://loinc.org",
                  "code": "48018-6",
                  "display": "Gene studied [ID]"
                }
              ]
            },
            "valueCodeableConcept": {
              "coding": [
                {
                  "code": "HGNC:1097",
                  "system": "http://www.genenames.org/geneId",
                  "display": "BRAF"
                }
              ]
            }
          },
          {
            "code": {
              "coding": [
                {
                  "system": "http://loinc.org",
                  "code": "36908-2",
                  "display": "Gene mutations tested for in Blood or Tissue by Molecular genetics method Nominal"
                }
              ]
            },
            "valueCodeableConcept": {
              "coding": [
                {
                  "code": "NM_004333.4:c.1799T>A",
                  "system": "http://varnomen.hgvs.org"
                }
              ]
            }
          },
          {
            "code": {
              "coding": [
                {
                  "system": "http://loinc.org",
                  "code": "81293-3",
                  "display": "Description of ranges of DNA sequences examined"
                }
              ]
            },
            "valueString": "BRAF: Exon 15 (Codon 600)"
          },
          {
            "code": {
              "coding": [
                {
                  "system": "http://loinc.org",
                  "code": "51959-5",
                  "display": "Range(s) of DNA sequence examined"
                }
              ]
            },
            "valueRange": {
              "low": {
                "value": 15,
                "code": "{Exon}",
                "system": "http://unitsofmeasure.org",
                "unit": "Exon"
              },
              "high": {
                "value": 15,
                "code": "{Exon}",
                "system": "http://unitsofmeasure.org",
                "unit": "Exon"
              }
            }
          },
          {
            "code": {
              "coding": [
                {
                  "system": "http://loinc.org",
                  "code": "51959-5",
                  "display": "Range(s) of DNA sequence examined"
                }
              ]
            },
            "valueRange": {
              "low": {
                "value": 582,
                "code": "{Codon}",
                "system": "http://unitsofmeasure.org",
                "unit": "Codon"
              },
              "high": {
                "value": 612,
                "code": "{Codon}",
                "system": "http://unitsofmeasure.org",
                "unit": "Codon"
              }
            }
          },
          {
            "code": {
              "coding": [
                {
                  "system": "http://loinc.org",
                  "code": "48013-7",
                  "display": "Genomic reference sequence [ID]"
                }
              ]
            },
            "valueCodeableConcept": {
              "coding": [
                {
                  "code": "NM_004333.4",
                  "system": "http://www.ncbi.nlm.nih.gov/refseq"
                }
              ]
            }
          }
        ],
        "status": "final",
        "subject": {
          "reference": "Patient/example-mii-molgen-patient"
        },
        "performer": [
          {
            "reference": "Practitioner/example-mii-molgen-practitioner-lab"
          }
        ],
        "method": {
          "coding": [
            {
              "code": "LA26398-0",
              "system": "http://loinc.org",
              "display": "Sequencing"
            }
          ]
        },
        "specimen": {
          "reference": "Specimen/example-mii-molgen-specimen-1"
        },
        "device": {
          "reference": "Device/example-mii-molgen-device-sequencer"
        }
      },
      "request": {
        "method": "POST",
        "url": "Observation"
      }
    },
    {
      "fullUrl": "https://www.medizininformatik-initiative.de/fhir/example-mii-molgen-genotyp-1",
      "resource": {
        "resourceType": "Observation",
        "id": "example-mii-molgen-genotyp-1",
        "meta": {
          "profile": [
            "https://www.medizininformatik-initiative.de/fhir/ext/modul-molgen/StructureDefinition/genotyp",
            "http://hl7.org/fhir/uv/genomics-reporting/StructureDefinition/genotype"
          ]
        },
        "code": {
          "coding": [
            {
              "system": "http://loinc.org",
              "code": "84413-4",
              "display": "Genotype display name"
            }
          ]
        },
        "category": [
          {
            "coding": [
              {
                "system": "http://terminology.hl7.org/CodeSystem/observation-category",
                "code": "laboratory",
                "display": "Laboratory"
              }
            ]
          }
        ],
        "component": [
          {
            "code": {
              "coding": [
                {
                  "system": "http://loinc.org",
                  "code": "48018-6",
                  "display": "Gene studied [ID]"
                }
              ]
            },
            "valueCodeableConcept": {
              "coding": [
                {
                  "code": "HGNC:1097",
                  "system": "http://www.genenames.org/geneId",
                  "display": "BRAF"
                }
              ]
            }
          },
          {
            "code": {
              "coding": [
                {
                  "system": "http://loinc.org",
                  "code": "48001-2",
                  "display": "Cytogenetic (chromosome) location"
                }
              ]
            },
            "valueCodeableConcept": {
              "coding": [
                {
                  "code": "7q34",
                  "system": "urn:oid:2.16.840.1.113883.6.335"
                }
              ]
            }
          }
        ],
        "status": "final",
        "subject": {
          "reference": "Patient/example-mii-molgen-patient"
        },
        "valueCodeableConcept": {
          "text": "BRAF rs113488022 T>A"
        },
        "method": {
          "coding": [
            {
              "code": "LA26398-0",
              "system": "http://loinc.org",
              "display": "Sequencing"
            }
          ]
        },
        "specimen": {
          "reference": "Specimen/example-mii-molgen-specimen-1"
        },
        "device": {
          "reference": "Device/example-mii-molgen-device-sequencer"
        },
        "derivedFrom": [
          {
            "reference": "Observation/example-mii-molgen-variante-1"
          }
        ]
      },
      "request": {
        "method": "POST",
        "url": "Observation"
      }
    },
    {
      "fullUrl": "https://www.medizininformatik-initiative.de/fhir/example-mii-molgen-mutationslast-1",
      "resource": {
        "resourceType": "Observation",
        "id": "example-mii-molgen-mutationslast-1",
        "meta": {
          "profile": [
            "https://www.medizininformatik-initiative.de/fhir/ext/modul-molgen/StructureDefinition/mutationslast",
            "http://hl7.org/fhir/uv/genomics-reporting/StructureDefinition/tmb"
          ]
        },
        "code": {
          "coding": [
            {
              "system": "http://loinc.org",
              "code": "94076-7",
              "display": "Mutations/Megabase [# Ratio] in Tumor"
            }
          ]
        },
        "category": [
          {
            "coding": [
              {
                "system": "http://terminology.hl7.org/CodeSystem/observation-category",
                "code": "laboratory",
                "display": "Laboratory"
              }
            ]
          }
        ],
        "status": "final",
        "subject": {
          "reference": "Patient/example-mii-molgen-patient"
        },
        "performer": [
          {
            "reference": "Practitioner/example-mii-molgen-practitioner-lab"
          }
        ],
        "valueQuantity": {
          "value": 12,
          "code": "1/1000000{Base}",
          "system": "http://unitsofmeasure.org",
          "unit": "Mutations/Megabase"
        },
        "specimen": {
          "reference": "Specimen/example-mii-molgen-specimen-1"
        }
      },
      "request": {
        "method": "POST",
        "url": "Observation"
      }
    },
    {
      "fullUrl": "https://www.medizininformatik-initiative.de/fhir/example-mii-molgen-device-sequencer",
      "resource": {
        "resourceType": "Device",
        "id": "example-mii-molgen-device-sequencer",
        "status": "active",
        "manufacturer": "Illumina",
        "deviceName": [
          {
            "name": "MiSeq",
            "type": "manufacturer-name"
          }
        ]
      },
      "request": {
        "method": "POST",
        "url": "Device"
      }
    },
    {
      "fullUrl": "https://www.medizininformatik-initiative.de/fhir/example-mii-molgen-practitioner-physician",
      "resource": {
        "resourceType": "Practitioner",
        "id": "example-mii-molgen-practitioner-physician",
        "active": true,
        "name": [
          {
            "use": "official",
            "text": "Dr. Linda Rubens",
            "family": "Rubens",
            "given": [
              "Linda"
            ],
            "prefix": [
              "Dr."
            ]
          }
        ]
      },
      "request": {
        "method": "POST",
        "url": "Practitioner"
      }
    }
  ]
}
