{
  "resourceType": "Bundle",
  "id": "befund-bundle-fam-his-breast-ovar-can",
  "type": "transaction",
  "timestamp": "2022-11-04T13:47:00+01:00",
  "entry": [
    {
      "fullUrl": "https://www.medizininformatik-initiative.de/fhir/mii-exa-molgen-patient-brca1",
      "resource": {
        "resourceType": "Patient",
        "id": "mii-exa-molgen-patient-brca1",
        "meta": {
          "profile": [
            "https://www.medizininformatik-initiative.de/fhir/core/modul-person/StructureDefinition/Patient"
          ]
        },
        "identifier": [
          {
            "use": "usual",
            "type": {
              "coding": [
                {
                  "code": "MR",
                  "system": "http://terminology.hl7.org/CodeSystem/v2-0203"
                }
              ]
            },
            "system": "https://www.charite.de/fhir/sid/patienten",
            "value": "9166147031",
            "assigner": {
              "display": "Charité - Universitätsmedizin Berlin",
              "identifier": {
                "system": "https://www.medizininformatik-initiative.de/fhir/core/CodeSystem/core-location-identifier",
                "value": "Charité"
              }
            }
          },
          {
            "use": "official",
            "type": {
              "coding": [
                {
                  "code": "GKV",
                  "system": "http://fhir.de/CodeSystem/identifier-type-de-basis"
                }
              ]
            },
            "system": "http://fhir.de/sid/gkv/kvid-10",
            "value": "Z977188448",
            "assigner": {
              "identifier": {
                "use": "official",
                "value": "109519005",
                "system": "http://fhir.de/sid/arge-ik/iknr"
              }
            }
          }
        ],
        "name": [
          {
            "use": "official",
            "family": "Schmidt-Huber",
            "_family": {
              "extension": [
                {
                  "url": "http://hl7.org/fhir/StructureDefinition/humanname-own-name",
                  "valueString": "Schmidt"
                }
              ]
            },
            "given": [
              "Elisa"
            ]
          }
        ],
        "gender": "female",
        "birthDate": "1973-03-12",
        "deceasedBoolean": false,
        "address": [
          {
            "type": "both",
            "line": [
              "Anna-Louisa-Karsch Str. 2"
            ],
            "city": "Berlin",
            "state": "DE-BE",
            "postalCode": "10178",
            "country": "DE"
          }
        ]
      },
      "request": {
        "method": "POST",
        "url": "Patient"
      }
    },
    {
      "fullUrl": "https://www.medizininformatik-initiative.de/fhir/mii-exa-molgen-molekulargenetischer-befundbericht-trurisk-panel",
      "resource": {
        "resourceType": "DiagnosticReport",
        "id": "mii-exa-molgen-molekulargenetischer-befundbericht-trurisk-panel",
        "meta": {
          "profile": [
            "https://www.medizininformatik-initiative.de/fhir/ext/modul-molgen/StructureDefinition/molekulargenetischer-befundbericht",
            "http://hl7.org/fhir/uv/genomics-reporting/StructureDefinition/genomics-report"
          ]
        },
        "category": [
          {
            "coding": [
              {
                "system": "http://terminology.hl7.org/CodeSystem/v2-0074",
                "code": "GE",
                "display": "Genetics"
              }
            ]
          }
        ],
        "extension": [
          {
            "url": "http://hl7.org/fhir/uv/genomics-reporting/StructureDefinition/genomics-artifact",
            "valueRelatedArtifact": {
              "type": "citation",
              "citation": "Plon SE, Eccles DM, Easton D, Foulkes WD, Genuardi M, Greenblatt MS, Hogervorst FB, Hoogerbrugge N, Spurdle AB, Tavtigian SV; IARC Unclassified Genetic Variants Working Group. Sequence variant classification and reporting: recommendations for improving the interpretation of cancer susceptibility genetic test results. Hum Mutat. 2008 Nov;29(11):1282-91. doi: 10.1002/humu.20880. PMID: 18951446; PMCID: PMC3075918.",
              "url": "https://doi.org/10.1002/humu.20880"
            }
          },
          {
            "url": "http://hl7.org/fhir/uv/genomics-reporting/StructureDefinition/genomics-artifact",
            "valueRelatedArtifact": {
              "type": "citation",
              "citation": "Rhiem K, Auber B, Briest S, Dikow N, Ditsch N, Dragicevic N, Grill S, Hahnen E, Horvath J, Jaeger B, Kast K, Kiechle M, Leinert E, Morlot S, Püsken M, Schäfer D, Schott S, Schroeder C, Siebers-Renelt U, Solbach C, Weber-Lassalle N, Witzel I, Zeder-Göß C, Schmutzler RK. Consensus Recommendations of the German Consortium for Hereditary Breast and Ovarian Cancer. Breast Care (Basel). 2022 Apr;17(2):199-207. doi: 10.1159/000516376. Epub 2021 Jul 19. PMID: 35702495; PMCID: PMC9149395.",
              "url": "https://doi.org/10.1159%2F000516376"
            }
          },
          {
            "url": "https://www.medizininformatik-initiative.de/fhir/ext/modul-molgen/StructureDefinition/empfohlene-massnahme",
            "valueReference": {
              "reference": "Task/mii-exa-molgen-folgemassnahme-brca1"
            }
          },
          {
            "url": "http://hl7.org/fhir/uv/genomics-reporting/StructureDefinition/genomics-risk-assessment",
            "valueReference": {
              "reference": "RiskAssessment/mii-exa-molgen-prs-brca1"
            }
          }
        ],
        "basedOn": [
          {
            "reference": "ServiceRequest/mii-exa-molgen-anforderung-trurisk-panel"
          }
        ],
        "status": "final",
        "code": {
          "coding": [
            {
              "code": "51969-4",
              "system": "http://loinc.org",
              "display": "Genetic analysis report"
            }
          ]
        },
        "subject": {
          "reference": "Patient/mii-exa-molgen-patient-brca1"
        },
        "performer": [
          {
            "reference": "Practitioner/example-mii-molgen-practitioner-lab"
          }
        ],
        "specimen": [
          {
            "reference": "Specimen/mii-exa-molgen-specimen-brca1"
          }
        ],
        "result": [
          {
            "reference": "Observation/mii-exa-molgen-ergebnis-zusammenfassung-trurisk-panel"
          },
          {
            "reference": "Observation/mii-exa-molgen-variante-brca1"
          },
          {
            "reference": "Observation/mii-exa-molgen-diagnostische-implikation-brca1"
          },
          {
            "reference": "Observation/mii-exa-molgen-untersuchte-region-true-risk-panel-v3-ATM"
          },
          {
            "reference": "Observation/mii-exa-molgen-untersuchte-region-true-risk-panel-v3-BRCA1"
          },
          {
            "reference": "Observation/mii-exa-molgen-untersuchte-region-true-risk-panel-v3-BARD1"
          },
          {
            "reference": "Observation/mii-exa-molgen-untersuchte-region-true-risk-panel-v3-BRCA2"
          },
          {
            "reference": "Observation/mii-exa-molgen-untersuchte-region-true-risk-panel-v3-BRIP1"
          },
          {
            "reference": "Observation/mii-exa-molgen-untersuchte-region-true-risk-panel-v3-CDH1"
          },
          {
            "reference": "Observation/mii-exa-molgen-untersuchte-region-true-risk-panel-v3-CHECK2"
          },
          {
            "reference": "Observation/mii-exa-molgen-untersuchte-region-true-risk-panel-v3-MLH1"
          },
          {
            "reference": "Observation/mii-exa-molgen-untersuchte-region-true-risk-panel-v3-MSH2"
          },
          {
            "reference": "Observation/mii-exa-molgen-untersuchte-region-true-risk-panel-v3-MSH6"
          },
          {
            "reference": "Observation/mii-exa-molgen-untersuchte-region-true-risk-panel-v3-PALB2"
          },
          {
            "reference": "Observation/mii-exa-molgen-untersuchte-region-true-risk-panel-v3-PMS2"
          },
          {
            "reference": "Observation/mii-exa-molgen-untersuchte-region-true-risk-panel-v3-PTEN"
          },
          {
            "reference": "Observation/mii-exa-molgen-untersuchte-region-true-risk-panel-v3-RAD51C"
          },
          {
            "reference": "Observation/mii-exa-molgen-untersuchte-region-true-risk-panel-v3-RAD51D"
          },
          {
            "reference": "Observation/mii-exa-molgen-untersuchte-region-true-risk-panel-v3-TP53"
          }
        ],
        "conclusion": "Nachweis heterozygoter Sequenzveränderung, die zum Funktionsverlust führt."
      },
      "request": {
        "method": "POST",
        "url": "DiagnosticReport"
      }
    },
    {
      "fullUrl": "https://www.medizininformatik-initiative.de/fhir/mii-exa-molgen-folgemassnahme-brca1",
      "resource": {
        "resourceType": "Task",
        "id": "mii-exa-molgen-folgemassnahme-brca1",
        "meta": {
          "profile": [
            "https://www.medizininformatik-initiative.de/fhir/ext/modul-molgen/StructureDefinition/empfohlene-folgemassnahme",
            "http://hl7.org/fhir/uv/genomics-reporting/StructureDefinition/followup-recommendation"
          ]
        },
        "status": "requested",
        "intent": "proposal",
        "basedOn": [
          {
            "reference": "ServiceRequest/mii-exa-molgen-anforderung-trurisk-panel"
          }
        ],
        "code": {
          "coding": [
            {
              "code": "LA14020-4",
              "system": "http://loinc.org",
              "display": "Genetic counseling recommended"
            }
          ]
        },
        "description": "Eine genetische Beratung hinsichtlich einer gezielten Testung leiblicher Familienmitglieder wird empfohlen.",
        "for": {
          "reference": "Patient/mii-exa-molgen-patient-brca1"
        }
      },
      "request": {
        "method": "POST",
        "url": "Task"
      }
    },
    {
      "fullUrl": "https://www.medizininformatik-initiative.de/fhir/mii-exa-molgen-prs-brca1",
      "resource": {
        "resourceType": "RiskAssessment",
        "id": "mii-exa-molgen-prs-brca1",
        "meta": {
          "profile": [
            "https://www.medizininformatik-initiative.de/fhir/ext/modul-molgen/StructureDefinition/polygener-risiko-score"
          ]
        },
        "prediction": [
          {
            "extension": [
              {
                "url": "https://www.medizininformatik-initiative.de/fhir/ext/modul-molgen/StructureDefinition/risk-assessment-einflussfaktor",
                "valueCodeableConcept": {
                  "coding": [
                    {
                      "code": "414152003",
                      "system": "http://snomed.info/sct",
                      "display": "European (ethnic group)"
                    }
                  ],
                  "text": "Der verwendete Polygene Risikoscore wurde bisher nur für die europäische Bevölkerung bei Brustkrebs validiert und kann daher noch nicht auf andere Ethnizitäten und andere Tumor-Erkrankungen übertragen werden."
                }
              }
            ],
            "outcome": {
              "coding": [
                {
                  "code": "718220008",
                  "system": "http://snomed.info/sct",
                  "display": "Hereditary breast and ovarian cancer syndrome (disorder)"
                }
              ]
            },
            "qualitativeRisk": {
              "coding": [
                {
                  "code": "high",
                  "system": "http://terminology.hl7.org/CodeSystem/risk-probability",
                  "display": "High likelihood"
                }
              ]
            }
          }
        ],
        "status": "final",
        "subject": {
          "reference": "Patient/example-mii-molgen-patient-2"
        },
        "occurrenceDateTime": "2022-11-01",
        "basis": [
          {
            "reference": "Observation/mii-exa-molgen-variante-brca1"
          }
        ]
      },
      "request": {
        "method": "POST",
        "url": "RiskAssessment"
      }
    },
    {
      "fullUrl": "https://www.medizininformatik-initiative.de/fhir/mii-exa-molgen-anforderung-trurisk-panel",
      "resource": {
        "resourceType": "ServiceRequest",
        "id": "mii-exa-molgen-anforderung-trurisk-panel",
        "meta": {
          "profile": [
            "https://www.medizininformatik-initiative.de/fhir/ext/modul-molgen/StructureDefinition/anforderung-genetischer-test"
          ]
        },
        "identifier": [
          {
            "system": "https://www.charite.de/fhir/auftragsnummern",
            "value": "gen_test_03"
          }
        ],
        "status": "active",
        "intent": "order",
        "category": [
          {
            "coding": [
              {
                "code": "108252007",
                "system": "http://snomed.info/sct",
                "display": "Laboratory procedure (procedure)"
              }
            ]
          }
        ],
        "code": {
          "coding": [
            {
              "code": "405825005",
              "system": "http://snomed.info/sct",
              "display": "Molecular genetic test (procedure)"
            }
          ],
          "text": "Panelanalyse TruRisk®-V3 mit NGS basierter CNV-Analyse Bestimmung des Polygenen Risikoscores (PRS) für Brustkrebs"
        },
        "subject": {
          "reference": "Patient/mii-exa-molgen-patient-brca1"
        },
        "authoredOn": "2022-11-01",
        "requester": {
          "reference": "Practitioner/example-mii-molgen-practitioner-physician"
        },
        "specimen": [
          {
            "reference": "Specimen/mii-exa-molgen-specimen-brca1"
          }
        ],
        "reasonCode": [
          {
            "coding": [
              {
                "code": "429740004",
                "system": "http://snomed.info/sct",
                "display": "Family history of malignant neoplasm of breast (situation)"
              }
            ]
          },
          {
            "coding": [
              {
                "code": "430705002",
                "system": "http://snomed.info/sct",
                "display": "Family history of malignant neoplasm of ovary (situation)"
              }
            ]
          },
          {
            "coding": [
              {
                "code": "ORPHA:145",
                "system": "http://www.orpha.net",
                "display": "Hereditary breast and ovarian cancer syndrome"
              }
            ]
          },
          {
            "coding": [
              {
                "code": "604370",
                "system": "http://www.omim.org",
                "display": "BREAST-OVARIAN CANCER, FAMILIAL, SUSCEPTIBILITY TO, 1; BROVCA1"
              }
            ]
          }
        ]
      },
      "request": {
        "method": "POST",
        "url": "ServiceRequest"
      }
    },
    {
      "fullUrl": "https://www.medizininformatik-initiative.de/fhir/example-mii-molgen-practitioner-lab",
      "resource": {
        "resourceType": "Practitioner",
        "id": "example-mii-molgen-practitioner-lab",
        "active": true,
        "name": [
          {
            "use": "official",
            "text": "Dr. Daniel Schmidt",
            "family": "Schmidt",
            "given": [
              "Daniel"
            ],
            "prefix": [
              "Dr."
            ]
          }
        ]
      },
      "request": {
        "method": "POST",
        "url": "Practitioner"
      }
    },
    {
      "fullUrl": "https://www.medizininformatik-initiative.de/fhir/mii-exa-molgen-specimen-brca1",
      "resource": {
        "resourceType": "Specimen",
        "id": "mii-exa-molgen-specimen-brca1",
        "meta": {
          "profile": [
            "https://www.medizininformatik-initiative.de/fhir/ext/modul-biobank/StructureDefinition/SpecimenCore"
          ]
        },
        "type": {
          "coding": [
            {
              "system": "http://snomed.info/sct",
              "code": "127457009",
              "display": "Tissue specimen from breast (specimen)"
            }
          ]
        },
        "status": "available",
        "subject": {
          "reference": "Patient/example-mii-molgen-patient-2"
        },
        "receivedTime": "2022-11-01",
        "collection": {
          "collectedDateTime": "2022-11-01"
        },
        "identifier": [
          {
            "system": "https://www.charite.de/fhir/sid/bioproben",
            "value": "specimen_03"
          }
        ]
      },
      "request": {
        "method": "POST",
        "url": "Observation"
      }
    },
    {
      "fullUrl": "https://www.medizininformatik-initiative.de/fhir/mii-exa-molgen-ergebnis-zusammenfassung-trurisk-panel",
      "resource": {
        "resourceType": "Observation",
        "id": "mii-exa-molgen-ergebnis-zusammenfassung-trurisk-panel",
        "meta": {
          "profile": [
            "https://www.medizininformatik-initiative.de/fhir/ext/modul-molgen/StructureDefinition/ergebnis-zusammenfassung",
            "http://hl7.org/fhir/uv/genomics-reporting/StructureDefinition/overall-interpretation"
          ]
        },
        "code": {
          "coding": [
            {
              "system": "http://loinc.org",
              "code": "51968-6"
            }
          ]
        },
        "category": [
          {
            "coding": [
              {
                "system": "http://terminology.hl7.org/CodeSystem/observation-category",
                "code": "laboratory",
                "display": "Laboratory"
              }
            ]
          }
        ],
        "component": [
          {
            "code": {
              "coding": [
                {
                  "system": "http://hl7.org/fhir/uv/genomics-reporting/CodeSystem/tbd-codes-cs",
                  "code": "conclusion-string"
                }
              ]
            },
            "valueString": "Nachweis heterozygoter Sequenzveränderung, die zum Funktionsverlust führt"
          }
        ],
        "status": "final",
        "subject": {
          "reference": "Patient/mii-exa-molgen-patient-brca1"
        },
        "valueCodeableConcept": {
          "coding": [
            {
              "code": "LA6576-8",
              "system": "http://loinc.org",
              "display": "Positive"
            }
          ]
        }
      },
      "request": {
        "method": "POST",
        "url": "Observation"
      }
    },
    {
      "fullUrl": "https://www.medizininformatik-initiative.de/fhir/mii-exa-molgen-variante-brca1",
      "resource": {
        "resourceType": "Observation",
        "id": "mii-exa-molgen-variante-brca1",
        "meta": {
          "profile": [
            "https://www.medizininformatik-initiative.de/fhir/ext/modul-molgen/StructureDefinition/variante",
            "http://hl7.org/fhir/uv/genomics-reporting/StructureDefinition/variant"
          ]
        },
        "code": {
          "coding": [
            {
              "system": "http://loinc.org",
              "code": "69548-6",
              "display": "Genetic variant assessment"
            }
          ]
        },
        "category": [
          {
            "coding": [
              {
                "system": "http://terminology.hl7.org/CodeSystem/observation-category",
                "code": "laboratory",
                "display": "Laboratory"
              }
            ]
          }
        ],
        "component": [
          {
            "code": {
              "coding": [
                {
                  "system": "http://loinc.org",
                  "code": "48018-6",
                  "display": "Gene studied [ID]"
                }
              ]
            },
            "valueCodeableConcept": {
              "coding": [
                {
                  "code": "HGNC:1100",
                  "system": "http://www.genenames.org/geneId",
                  "display": "BRCA1"
                }
              ]
            }
          },
          {
            "code": {
              "coding": [
                {
                  "system": "http://loinc.org",
                  "code": "48001-2"
                }
              ]
            },
            "valueCodeableConcept": {
              "coding": [
                {
                  "code": "17q21.31",
                  "system": "urn:oid:2.16.840.1.113883.6.335"
                }
              ]
            }
          },
          {
            "code": {
              "coding": [
                {
                  "system": "http://loinc.org",
                  "code": "48004-6"
                }
              ]
            },
            "valueCodeableConcept": {
              "coding": [
                {
                  "code": "NM_007294.3:c.5266dupC",
                  "system": "http://varnomen.hgvs.org"
                }
              ]
            }
          },
          {
            "code": {
              "coding": [
                {
                  "system": "http://loinc.org",
                  "code": "51958-7"
                }
              ]
            },
            "valueCodeableConcept": {
              "coding": [
                {
                  "code": "NM_007294.3",
                  "system": "http://www.ncbi.nlm.nih.gov/refseq"
                }
              ]
            }
          },
          {
            "code": {
              "coding": [
                {
                  "system": "http://loinc.org",
                  "code": "48019-4"
                }
              ]
            },
            "valueCodeableConcept": {
              "coding": [
                {
                  "code": "SO:1000035",
                  "system": "http://sequenceontology.org",
                  "display": "duplication"
                }
              ]
            }
          },
          {
            "code": {
              "coding": [
                {
                  "system": "http://loinc.org",
                  "code": "82121-5"
                }
              ]
            },
            "valueQuantity": {
              "value": 50,
              "code": "1",
              "system": "http://unitsofmeasure.org",
              "unit": "Abdeckung der Fragmente"
            }
          },
          {
            "code": {
              "coding": [
                {
                  "system": "http://loinc.org",
                  "code": "81252-9"
                }
              ]
            },
            "valueCodeableConcept": {
              "coding": [
                {
                  "code": "rs80357906",
                  "system": "http://www.ncbi.nlm.nih.gov/projects/SNP"
                }
              ]
            }
          },
          {
            "code": {
              "coding": [
                {
                  "system": "http://loinc.org",
                  "code": "48000-4"
                }
              ]
            },
            "valueCodeableConcept": {
              "coding": [
                {
                  "code": "LA21270-6",
                  "system": "http://loinc.org",
                  "display": "Chromosome 17"
                }
              ]
            }
          },
          {
            "code": {
              "coding": [
                {
                  "system": "http://loinc.org",
                  "code": "48005-3"
                }
              ]
            },
            "valueCodeableConcept": {
              "coding": [
                {
                  "code": "p.Gln1756Profs",
                  "system": "http://varnomen.hgvs.org"
                }
              ]
            }
          },
          {
            "code": {
              "coding": [
                {
                  "system": "http://loinc.org",
                  "code": "48006-1"
                }
              ]
            },
            "valueCodeableConcept": {
              "coding": [
                {
                  "code": "LA6694-9",
                  "system": "http://loinc.org",
                  "display": "Frameshift"
                }
              ]
            }
          },
          {
            "code": {
              "coding": [
                {
                  "code": "87706-8",
                  "system": "http://loinc.org"
                }
              ]
            },
            "valueQuantity": {
              "value": 95,
              "comparator": ">",
              "unit": "%",
              "system": "http://unitsofmeasure.org",
              "code": "%"
            }
          }
        ],
        "basedOn": [
          {
            "reference": "mii-exa-molgen-anforderung-brca1"
          }
        ],
        "status": "final",
        "subject": {
          "reference": "Patient/mii-exa-molgen-patient-brca1"
        },
        "valueCodeableConcept": {
          "coding": [
            {
              "code": "LA9633-4",
              "system": "http://loinc.org",
              "display": "Present"
            }
          ]
        },
        "method": {
          "coding": [
            {
              "code": "LA26398-0",
              "system": "http://loinc.org",
              "display": "Sequencing"
            }
          ]
        },
        "specimen": {
          "reference": "Specimen/mii-exa-molgen-specimen-brca1"
        },
        "device": {
          "reference": "Device/mii-exa-molgen-device-sequencer-nextseq"
        }
      },
      "request": {
        "method": "POST",
        "url": "Observation"
      }
    },
    {
      "fullUrl": "https://www.medizininformatik-initiative.de/fhir/mii-exa-molgen-diagnostische-implikation-brca1",
      "resource": {
        "resourceType": "Observation",
        "id": "mii-exa-molgen-diagnostische-implikation-brca1",
        "meta": {
          "profile": [
            "https://www.medizininformatik-initiative.de/fhir/ext/modul-molgen/StructureDefinition/diagnostische-implikation",
            "http://hl7.org/fhir/uv/genomics-reporting/StructureDefinition/diagnostic-implication"
          ]
        },
        "code": {
          "coding": [
            {
              "system": "http://hl7.org/fhir/uv/genomics-reporting/CodeSystem/tbd-codes-cs",
              "code": "diagnostic-implication",
              "display": "Diagnostische Implikation"
            }
          ]
        },
        "category": [
          {
            "coding": [
              {
                "system": "http://terminology.hl7.org/CodeSystem/observation-category",
                "code": "laboratory",
                "display": "Laboratory"
              }
            ]
          }
        ],
        "component": [
          {
            "code": {
              "coding": [
                {
                  "system": "http://hl7.org/fhir/uv/genomics-reporting/CodeSystem/tbd-codes-cs",
                  "code": "conclusion-string"
                }
              ]
            },
            "valueString": "Nachweis heterozygoter Sequenzveränderung, die zum Funktionsverlust führt"
          },
          {
            "code": {
              "coding": [
                {
                  "system": "http://loinc.org",
                  "code": "53037-8",
                  "display": "Genetic variation clinical significance [Imp]"
                }
              ]
            },
            "valueCodeableConcept": {
              "coding": [
                {
                  "code": "LA6668-3",
                  "system": "http://loinc.org",
                  "display": "Pathogenic"
                }
              ]
            }
          },
          {
            "code": {
              "coding": [
                {
                  "system": "http://hl7.org/fhir/uv/genomics-reporting/CodeSystem/tbd-codes-cs",
                  "code": "functional-effect"
                }
              ]
            },
            "valueCodeableConcept": {
              "coding": [
                {
                  "code": "SO:0002054",
                  "system": "http://sequenceontology.org",
                  "display": "loss_of_function_variant"
                }
              ],
              "text": "Funktionsverlust des Genprodukts"
            }
          },
          {
            "code": {
              "coding": [
                {
                  "system": "http://loinc.org",
                  "code": "81259-4"
                }
              ]
            },
            "valueCodeableConcept": {
              "coding": [
                {
                  "code": "HP:0003002",
                  "system": "http://github.com/phenopackets/core-ig/CodeSystem/hpo",
                  "display": "Breast carcinoma"
                },
                {
                  "code": "HP:0100615",
                  "system": "http://github.com/phenopackets/core-ig/CodeSystem/hpo",
                  "display": "Ovarian neoplasm"
                }
              ]
            }
          },
          {
            "code": {
              "coding": [
                {
                  "system": "http://loinc.org",
                  "code": "93044-6"
                }
              ]
            },
            "valueCodeableConcept": {
              "coding": [
                {
                  "code": "2-star",
                  "system": "http://hl7.org/fhir/uv/genomics-reporting/CodeSystem/clinvar-evidence-level-custom-cs",
                  "display": "2 star"
                }
              ]
            }
          }
        ],
        "status": "final",
        "subject": {
          "reference": "Patient/mii-exa-molgen-patient-brca1"
        },
        "performer": [
          {
            "reference": "Practitioner/example-mii-molgen-practitioner-lab"
          }
        ],
        "derivedFrom": [
          {
            "reference": "Observation/mii-exa-molgen-variante-brca1"
          }
        ]
      },
      "request": {
        "method": "POST",
        "url": "Observation"
      }
    },
    {
      "fullUrl": "https://www.medizininformatik-initiative.de/fhir/mii-exa-molgen-untersuchte-region-true-risk-panel-v3-ATM",
      "resource": {
        "resourceType": "Observation",
        "id": "mii-exa-molgen-untersuchte-region-true-risk-panel-v3-ATM",
        "meta": {
          "profile": [
            "https://www.medizininformatik-initiative.de/fhir/ext/modul-molgen/StructureDefinition/untersuchte-region",
            "http://hl7.org/fhir/uv/genomics-reporting/StructureDefinition/region-studied"
          ]
        },
        "code": {
          "coding": [
            {
              "system": "http://loinc.org",
              "code": "53041-0",
              "display": "DNA region of interest panel"
            }
          ]
        },
        "category": [
          {
            "coding": [
              {
                "system": "http://terminology.hl7.org/CodeSystem/observation-category",
                "code": "laboratory",
                "display": "Laboratory"
              }
            ]
          }
        ],
        "component": [
          {
            "code": {
              "coding": [
                {
                  "system": "http://loinc.org",
                  "code": "48018-6",
                  "display": "Gene studied [ID]"
                }
              ]
            },
            "valueCodeableConcept": {
              "coding": [
                {
                  "code": "HGNC:795",
                  "system": "http://www.genenames.org/geneId",
                  "display": "ATM"
                }
              ]
            }
          },
          {
            "code": {
              "coding": [
                {
                  "system": "http://loinc.org",
                  "code": "81293-3",
                  "display": "Description of ranges of DNA sequences examined"
                }
              ]
            },
            "valueString": "direkte Sequenzierung der codierenden Exons inkl. flankierender intronischer Bereiche"
          },
          {
            "code": {
              "coding": [
                {
                  "code": "51958-7",
                  "system": "http://loinc.org"
                }
              ]
            },
            "valueCodeableConcept": {
              "coding": [
                {
                  "code": "NM_000051.3",
                  "system": "http://www.ncbi.nlm.nih.gov/refseq"
                }
              ]
            }
          }
        ],
        "status": "final",
        "subject": {
          "reference": "Patient/mii-exa-molgen-patient-brca1"
        },
        "performer": [
          {
            "reference": "Practitioner/example-mii-molgen-practitioner-lab"
          }
        ],
        "method": {
          "coding": [
            {
              "code": "LA26398-0",
              "system": "http://loinc.org",
              "display": "Sequencing"
            }
          ]
        },
        "specimen": {
          "reference": "Specimen/mii-exa-molgen-specimen-brca1"
        },
        "device": {
          "reference": "Device/mii-exa-molgen-device-sequencer-nextseq"
        }
      },
      "request": {
        "method": "POST",
        "url": "Observation"
      }
    },
    {
      "fullUrl": "https://www.medizininformatik-initiative.de/fhir/mii-exa-molgen-untersuchte-region-true-risk-panel-v3-BRCA1",
      "resource": {
        "resourceType": "Observation",
        "id": "mii-exa-molgen-untersuchte-region-true-risk-panel-v3-BRCA1",
        "meta": {
          "profile": [
            "https://www.medizininformatik-initiative.de/fhir/ext/modul-molgen/StructureDefinition/untersuchte-region",
            "http://hl7.org/fhir/uv/genomics-reporting/StructureDefinition/region-studied"
          ]
        },
        "code": {
          "coding": [
            {
              "system": "http://loinc.org",
              "code": "53041-0",
              "display": "DNA region of interest panel"
            }
          ]
        },
        "category": [
          {
            "coding": [
              {
                "system": "http://terminology.hl7.org/CodeSystem/observation-category",
                "code": "laboratory",
                "display": "Laboratory"
              }
            ]
          }
        ],
        "component": [
          {
            "code": {
              "coding": [
                {
                  "system": "http://loinc.org",
                  "code": "48018-6",
                  "display": "Gene studied [ID]"
                }
              ]
            },
            "valueCodeableConcept": {
              "coding": [
                {
                  "code": "HGNC:1100",
                  "system": "http://www.genenames.org/geneId",
                  "display": "BRCA1"
                }
              ]
            }
          },
          {
            "code": {
              "coding": [
                {
                  "system": "http://loinc.org",
                  "code": "81293-3",
                  "display": "Description of ranges of DNA sequences examined"
                }
              ]
            },
            "valueString": "direkte Sequenzierung der codierenden Exons inkl. flankierender intronischer Bereiche"
          },
          {
            "code": {
              "coding": [
                {
                  "code": "51958-7",
                  "system": "http://loinc.org"
                }
              ]
            },
            "valueCodeableConcept": {
              "coding": [
                {
                  "code": "NM_007294.3",
                  "system": "http://www.ncbi.nlm.nih.gov/refseq"
                }
              ]
            }
          }
        ],
        "status": "final",
        "subject": {
          "reference": "Patient/mii-exa-molgen-patient-brca1"
        },
        "performer": [
          {
            "reference": "Practitioner/example-mii-molgen-practitioner-lab"
          }
        ],
        "method": {
          "coding": [
            {
              "code": "LA26398-0",
              "system": "http://loinc.org",
              "display": "Sequencing"
            }
          ]
        },
        "specimen": {
          "reference": "Specimen/mii-exa-molgen-specimen-brca1"
        },
        "device": {
          "reference": "Device/mii-exa-molgen-device-sequencer-nextseq"
        }
      },
      "request": {
        "method": "POST",
        "url": "Observation"
      }
    },
    {
      "fullUrl": "https://www.medizininformatik-initiative.de/fhir/mii-exa-molgen-untersuchte-region-true-risk-panel-v3-BARD1",
      "resource": {
        "resourceType": "Observation",
        "id": "mii-exa-molgen-untersuchte-region-true-risk-panel-v3-BARD1",
        "meta": {
          "profile": [
            "https://www.medizininformatik-initiative.de/fhir/ext/modul-molgen/StructureDefinition/untersuchte-region",
            "http://hl7.org/fhir/uv/genomics-reporting/StructureDefinition/region-studied"
          ]
        },
        "code": {
          "coding": [
            {
              "system": "http://loinc.org",
              "code": "53041-0",
              "display": "DNA region of interest panel"
            }
          ]
        },
        "category": [
          {
            "coding": [
              {
                "system": "http://terminology.hl7.org/CodeSystem/observation-category",
                "code": "laboratory",
                "display": "Laboratory"
              }
            ]
          }
        ],
        "component": [
          {
            "code": {
              "coding": [
                {
                  "system": "http://loinc.org",
                  "code": "48018-6",
                  "display": "Gene studied [ID]"
                }
              ]
            },
            "valueCodeableConcept": {
              "coding": [
                {
                  "code": "HGNC:952",
                  "system": "http://www.genenames.org/geneId",
                  "display": "BARD1"
                }
              ]
            }
          },
          {
            "code": {
              "coding": [
                {
                  "system": "http://loinc.org",
                  "code": "81293-3",
                  "display": "Description of ranges of DNA sequences examined"
                }
              ]
            },
            "valueString": "direkte Sequenzierung der codierenden Exons inkl. flankierender intronischer Bereiche"
          },
          {
            "code": {
              "coding": [
                {
                  "code": "51958-7",
                  "system": "http://loinc.org"
                }
              ]
            },
            "valueCodeableConcept": {
              "coding": [
                {
                  "code": "NM_000465.3",
                  "system": "http://www.ncbi.nlm.nih.gov/refseq"
                }
              ]
            }
          }
        ],
        "status": "final",
        "subject": {
          "reference": "Patient/mii-exa-molgen-patient-brca1"
        },
        "performer": [
          {
            "reference": "Practitioner/example-mii-molgen-practitioner-lab"
          }
        ],
        "method": {
          "coding": [
            {
              "code": "LA26398-0",
              "system": "http://loinc.org",
              "display": "Sequencing"
            }
          ]
        },
        "specimen": {
          "reference": "Specimen/mii-exa-molgen-specimen-brca1"
        },
        "device": {
          "reference": "Device/mii-exa-molgen-device-sequencer-nextseq"
        }
      },
      "request": {
        "method": "POST",
        "url": "Observation"
      }
    },
    {
      "fullUrl": "https://www.medizininformatik-initiative.de/fhir/mii-exa-molgen-untersuchte-region-true-risk-panel-v3-BRCA2",
      "resource": {
        "resourceType": "Observation",
        "id": "mii-exa-molgen-untersuchte-region-true-risk-panel-v3-BRCA2",
        "meta": {
          "profile": [
            "https://www.medizininformatik-initiative.de/fhir/ext/modul-molgen/StructureDefinition/untersuchte-region",
            "http://hl7.org/fhir/uv/genomics-reporting/StructureDefinition/region-studied"
          ]
        },
        "code": {
          "coding": [
            {
              "system": "http://loinc.org",
              "code": "53041-0",
              "display": "DNA region of interest panel"
            }
          ]
        },
        "category": [
          {
            "coding": [
              {
                "system": "http://terminology.hl7.org/CodeSystem/observation-category",
                "code": "laboratory",
                "display": "Laboratory"
              }
            ]
          }
        ],
        "component": [
          {
            "code": {
              "coding": [
                {
                  "system": "http://loinc.org",
                  "code": "48018-6",
                  "display": "Gene studied [ID]"
                }
              ]
            },
            "valueCodeableConcept": {
              "coding": [
                {
                  "code": "HGNC:1101",
                  "system": "http://www.genenames.org/geneId",
                  "display": "BRCA2"
                }
              ]
            }
          },
          {
            "code": {
              "coding": [
                {
                  "system": "http://loinc.org",
                  "code": "81293-3",
                  "display": "Description of ranges of DNA sequences examined"
                }
              ]
            },
            "valueString": "direkte Sequenzierung der codierenden Exons inkl. flankierender intronischer Bereiche"
          },
          {
            "code": {
              "coding": [
                {
                  "code": "51958-7",
                  "system": "http://loinc.org"
                }
              ]
            },
            "valueCodeableConcept": {
              "coding": [
                {
                  "code": "NM_000059.3",
                  "system": "http://www.ncbi.nlm.nih.gov/refseq"
                }
              ]
            }
          }
        ],
        "status": "final",
        "subject": {
          "reference": "Patient/mii-exa-molgen-patient-brca1"
        },
        "performer": [
          {
            "reference": "Practitioner/example-mii-molgen-practitioner-lab"
          }
        ],
        "method": {
          "coding": [
            {
              "code": "LA26398-0",
              "system": "http://loinc.org",
              "display": "Sequencing"
            }
          ]
        },
        "specimen": {
          "reference": "Specimen/mii-exa-molgen-specimen-brca1"
        },
        "device": {
          "reference": "Device/mii-exa-molgen-device-sequencer-nextseq"
        }
      },
      "request": {
        "method": "POST",
        "url": "Observation"
      }
    },
    {
      "fullUrl": "https://www.medizininformatik-initiative.de/fhir/mii-exa-molgen-untersuchte-region-true-risk-panel-v3-BRIP1",
      "resource": {
        "resourceType": "Observation",
        "id": "mii-exa-molgen-untersuchte-region-true-risk-panel-v3-BRIP1",
        "meta": {
          "profile": [
            "https://www.medizininformatik-initiative.de/fhir/ext/modul-molgen/StructureDefinition/untersuchte-region",
            "http://hl7.org/fhir/uv/genomics-reporting/StructureDefinition/region-studied"
          ]
        },
        "code": {
          "coding": [
            {
              "system": "http://loinc.org",
              "code": "53041-0",
              "display": "DNA region of interest panel"
            }
          ]
        },
        "category": [
          {
            "coding": [
              {
                "system": "http://terminology.hl7.org/CodeSystem/observation-category",
                "code": "laboratory",
                "display": "Laboratory"
              }
            ]
          }
        ],
        "component": [
          {
            "code": {
              "coding": [
                {
                  "system": "http://loinc.org",
                  "code": "48018-6",
                  "display": "Gene studied [ID]"
                }
              ]
            },
            "valueCodeableConcept": {
              "coding": [
                {
                  "code": "HGNC:20473",
                  "system": "http://www.genenames.org/geneId",
                  "display": "BRIP1"
                }
              ]
            }
          },
          {
            "code": {
              "coding": [
                {
                  "system": "http://loinc.org",
                  "code": "81293-3",
                  "display": "Description of ranges of DNA sequences examined"
                }
              ]
            },
            "valueString": "direkte Sequenzierung der codierenden Exons inkl. flankierender intronischer Bereiche"
          },
          {
            "code": {
              "coding": [
                {
                  "code": "51958-7",
                  "system": "http://loinc.org"
                }
              ]
            },
            "valueCodeableConcept": {
              "coding": [
                {
                  "code": "NM_032043.2",
                  "system": "http://www.ncbi.nlm.nih.gov/refseq"
                }
              ]
            }
          }
        ],
        "status": "final",
        "subject": {
          "reference": "Patient/mii-exa-molgen-patient-brca1"
        },
        "performer": [
          {
            "reference": "Practitioner/example-mii-molgen-practitioner-lab"
          }
        ],
        "method": {
          "coding": [
            {
              "code": "LA26398-0",
              "system": "http://loinc.org",
              "display": "Sequencing"
            }
          ]
        },
        "specimen": {
          "reference": "Specimen/mii-exa-molgen-specimen-brca1"
        },
        "device": {
          "reference": "Device/mii-exa-molgen-device-sequencer-nextseq"
        }
      },
      "request": {
        "method": "POST",
        "url": "Observation"
      }
    },
    {
      "fullUrl": "https://www.medizininformatik-initiative.de/fhir/mii-exa-molgen-untersuchte-region-true-risk-panel-v3-CDH1",
      "resource": {
        "resourceType": "Observation",
        "id": "mii-exa-molgen-untersuchte-region-true-risk-panel-v3-CDH1",
        "meta": {
          "profile": [
            "https://www.medizininformatik-initiative.de/fhir/ext/modul-molgen/StructureDefinition/untersuchte-region",
            "http://hl7.org/fhir/uv/genomics-reporting/StructureDefinition/region-studied"
          ]
        },
        "code": {
          "coding": [
            {
              "system": "http://loinc.org",
              "code": "53041-0",
              "display": "DNA region of interest panel"
            }
          ]
        },
        "category": [
          {
            "coding": [
              {
                "system": "http://terminology.hl7.org/CodeSystem/observation-category",
                "code": "laboratory",
                "display": "Laboratory"
              }
            ]
          }
        ],
        "component": [
          {
            "code": {
              "coding": [
                {
                  "system": "http://loinc.org",
                  "code": "48018-6",
                  "display": "Gene studied [ID]"
                }
              ]
            },
            "valueCodeableConcept": {
              "coding": [
                {
                  "code": "HGNC:1748",
                  "system": "http://www.genenames.org/geneId",
                  "display": "CDH1"
                }
              ]
            }
          },
          {
            "code": {
              "coding": [
                {
                  "system": "http://loinc.org",
                  "code": "81293-3",
                  "display": "Description of ranges of DNA sequences examined"
                }
              ]
            },
            "valueString": "direkte Sequenzierung der codierenden Exons inkl. flankierender intronischer Bereiche"
          },
          {
            "code": {
              "coding": [
                {
                  "code": "51958-7",
                  "system": "http://loinc.org"
                }
              ]
            },
            "valueCodeableConcept": {
              "coding": [
                {
                  "code": "NM_004360.3",
                  "system": "http://www.ncbi.nlm.nih.gov/refseq"
                }
              ]
            }
          }
        ],
        "status": "final",
        "subject": {
          "reference": "Patient/mii-exa-molgen-patient-brca1"
        },
        "performer": [
          {
            "reference": "Practitioner/example-mii-molgen-practitioner-lab"
          }
        ],
        "method": {
          "coding": [
            {
              "code": "LA26398-0",
              "system": "http://loinc.org",
              "display": "Sequencing"
            }
          ]
        },
        "specimen": {
          "reference": "Specimen/mii-exa-molgen-specimen-brca1"
        },
        "device": {
          "reference": "Device/mii-exa-molgen-device-sequencer-nextseq"
        }
      },
      "request": {
        "method": "POST",
        "url": "Observation"
      }
    },
    {
      "fullUrl": "https://www.medizininformatik-initiative.de/fhir/mii-exa-molgen-untersuchte-region-true-risk-panel-v3-CHECK2",
      "resource": {
        "resourceType": "Observation",
        "id": "mii-exa-molgen-untersuchte-region-true-risk-panel-v3-CHECK2",
        "meta": {
          "profile": [
            "https://www.medizininformatik-initiative.de/fhir/ext/modul-molgen/StructureDefinition/untersuchte-region",
            "http://hl7.org/fhir/uv/genomics-reporting/StructureDefinition/region-studied"
          ]
        },
        "code": {
          "coding": [
            {
              "system": "http://loinc.org",
              "code": "53041-0",
              "display": "DNA region of interest panel"
            }
          ]
        },
        "category": [
          {
            "coding": [
              {
                "system": "http://terminology.hl7.org/CodeSystem/observation-category",
                "code": "laboratory",
                "display": "Laboratory"
              }
            ]
          }
        ],
        "component": [
          {
            "code": {
              "coding": [
                {
                  "system": "http://loinc.org",
                  "code": "48018-6",
                  "display": "Gene studied [ID]"
                }
              ]
            },
            "valueCodeableConcept": {
              "coding": [
                {
                  "code": "HGNC:16627",
                  "system": "http://www.genenames.org/geneId",
                  "display": "CHECK2"
                }
              ]
            }
          },
          {
            "code": {
              "coding": [
                {
                  "system": "http://loinc.org",
                  "code": "81293-3",
                  "display": "Description of ranges of DNA sequences examined"
                }
              ]
            },
            "valueString": "direkte Sequenzierung der codierenden Exons inkl. flankierender intronischer Bereiche"
          },
          {
            "code": {
              "coding": [
                {
                  "code": "51958-7",
                  "system": "http://loinc.org"
                }
              ]
            },
            "valueCodeableConcept": {
              "coding": [
                {
                  "code": "NM_007194.3",
                  "system": "http://www.ncbi.nlm.nih.gov/refseq"
                }
              ]
            }
          }
        ],
        "status": "final",
        "subject": {
          "reference": "Patient/mii-exa-molgen-patient-brca1"
        },
        "performer": [
          {
            "reference": "Practitioner/example-mii-molgen-practitioner-lab"
          }
        ],
        "method": {
          "coding": [
            {
              "code": "LA26398-0",
              "system": "http://loinc.org",
              "display": "Sequencing"
            }
          ]
        },
        "specimen": {
          "reference": "Specimen/mii-exa-molgen-specimen-brca1"
        },
        "device": {
          "reference": "Device/mii-exa-molgen-device-sequencer-nextseq"
        }
      },
      "request": {
        "method": "POST",
        "url": "Observation"
      }
    },
    {
      "fullUrl": "https://www.medizininformatik-initiative.de/fhir/mii-exa-molgen-untersuchte-region-true-risk-panel-v3-MLH1",
      "resource": {
        "resourceType": "Observation",
        "id": "mii-exa-molgen-untersuchte-region-true-risk-panel-v3-MLH1",
        "meta": {
          "profile": [
            "https://www.medizininformatik-initiative.de/fhir/ext/modul-molgen/StructureDefinition/untersuchte-region",
            "http://hl7.org/fhir/uv/genomics-reporting/StructureDefinition/region-studied"
          ]
        },
        "code": {
          "coding": [
            {
              "system": "http://loinc.org",
              "code": "53041-0",
              "display": "DNA region of interest panel"
            }
          ]
        },
        "category": [
          {
            "coding": [
              {
                "system": "http://terminology.hl7.org/CodeSystem/observation-category",
                "code": "laboratory",
                "display": "Laboratory"
              }
            ]
          }
        ],
        "component": [
          {
            "code": {
              "coding": [
                {
                  "system": "http://loinc.org",
                  "code": "48018-6",
                  "display": "Gene studied [ID]"
                }
              ]
            },
            "valueCodeableConcept": {
              "coding": [
                {
                  "code": "HGNC:7127",
                  "system": "http://www.genenames.org/geneId",
                  "display": "MLH1"
                }
              ]
            }
          },
          {
            "code": {
              "coding": [
                {
                  "system": "http://loinc.org",
                  "code": "81293-3",
                  "display": "Description of ranges of DNA sequences examined"
                }
              ]
            },
            "valueString": "direkte Sequenzierung der codierenden Exons inkl. flankierender intronischer Bereiche"
          },
          {
            "code": {
              "coding": [
                {
                  "code": "51958-7",
                  "system": "http://loinc.org"
                }
              ]
            },
            "valueCodeableConcept": {
              "coding": [
                {
                  "code": "NM_000249.3",
                  "system": "http://www.ncbi.nlm.nih.gov/refseq"
                }
              ]
            }
          }
        ],
        "status": "final",
        "subject": {
          "reference": "Patient/mii-exa-molgen-patient-brca1"
        },
        "performer": [
          {
            "reference": "Practitioner/example-mii-molgen-practitioner-lab"
          }
        ],
        "method": {
          "coding": [
            {
              "code": "LA26398-0",
              "system": "http://loinc.org",
              "display": "Sequencing"
            }
          ]
        },
        "specimen": {
          "reference": "Specimen/mii-exa-molgen-specimen-brca1"
        },
        "device": {
          "reference": "Device/mii-exa-molgen-device-sequencer-nextseq"
        }
      },
      "request": {
        "method": "POST",
        "url": "Observation"
      }
    },
    {
      "fullUrl": "https://www.medizininformatik-initiative.de/fhir/mii-exa-molgen-untersuchte-region-true-risk-panel-v3-MSH2",
      "resource": {
        "resourceType": "Observation",
        "id": "mii-exa-molgen-untersuchte-region-true-risk-panel-v3-MSH2",
        "meta": {
          "profile": [
            "https://www.medizininformatik-initiative.de/fhir/ext/modul-molgen/StructureDefinition/untersuchte-region",
            "http://hl7.org/fhir/uv/genomics-reporting/StructureDefinition/region-studied"
          ]
        },
        "code": {
          "coding": [
            {
              "system": "http://loinc.org",
              "code": "53041-0",
              "display": "DNA region of interest panel"
            }
          ]
        },
        "category": [
          {
            "coding": [
              {
                "system": "http://terminology.hl7.org/CodeSystem/observation-category",
                "code": "laboratory",
                "display": "Laboratory"
              }
            ]
          }
        ],
        "component": [
          {
            "code": {
              "coding": [
                {
                  "system": "http://loinc.org",
                  "code": "48018-6",
                  "display": "Gene studied [ID]"
                }
              ]
            },
            "valueCodeableConcept": {
              "coding": [
                {
                  "code": "HGNC:7325",
                  "system": "http://www.genenames.org/geneId",
                  "display": "MSH2"
                }
              ]
            }
          },
          {
            "code": {
              "coding": [
                {
                  "system": "http://loinc.org",
                  "code": "81293-3",
                  "display": "Description of ranges of DNA sequences examined"
                }
              ]
            },
            "valueString": "direkte Sequenzierung der codierenden Exons inkl. flankierender intronischer Bereiche"
          },
          {
            "code": {
              "coding": [
                {
                  "code": "51958-7",
                  "system": "http://loinc.org"
                }
              ]
            },
            "valueCodeableConcept": {
              "coding": [
                {
                  "code": "NM_000251.2",
                  "system": "http://www.ncbi.nlm.nih.gov/refseq"
                }
              ]
            }
          }
        ],
        "status": "final",
        "subject": {
          "reference": "Patient/mii-exa-molgen-patient-brca1"
        },
        "performer": [
          {
            "reference": "Practitioner/example-mii-molgen-practitioner-lab"
          }
        ],
        "method": {
          "coding": [
            {
              "code": "LA26398-0",
              "system": "http://loinc.org",
              "display": "Sequencing"
            }
          ]
        },
        "specimen": {
          "reference": "Specimen/mii-exa-molgen-specimen-brca1"
        },
        "device": {
          "reference": "Device/mii-exa-molgen-device-sequencer-nextseq"
        }
      },
      "request": {
        "method": "POST",
        "url": "Observation"
      }
    },
    {
      "fullUrl": "https://www.medizininformatik-initiative.de/fhir/mii-exa-molgen-untersuchte-region-true-risk-panel-v3-MSH6",
      "resource": {
        "resourceType": "Observation",
        "id": "mii-exa-molgen-untersuchte-region-true-risk-panel-v3-MSH6",
        "meta": {
          "profile": [
            "https://www.medizininformatik-initiative.de/fhir/ext/modul-molgen/StructureDefinition/untersuchte-region",
            "http://hl7.org/fhir/uv/genomics-reporting/StructureDefinition/region-studied"
          ]
        },
        "code": {
          "coding": [
            {
              "system": "http://loinc.org",
              "code": "53041-0",
              "display": "DNA region of interest panel"
            }
          ]
        },
        "category": [
          {
            "coding": [
              {
                "system": "http://terminology.hl7.org/CodeSystem/observation-category",
                "code": "laboratory",
                "display": "Laboratory"
              }
            ]
          }
        ],
        "component": [
          {
            "code": {
              "coding": [
                {
                  "system": "http://loinc.org",
                  "code": "48018-6",
                  "display": "Gene studied [ID]"
                }
              ]
            },
            "valueCodeableConcept": {
              "coding": [
                {
                  "code": "HGNC:7329",
                  "system": "http://www.genenames.org/geneId",
                  "display": "MSH6"
                }
              ]
            }
          },
          {
            "code": {
              "coding": [
                {
                  "system": "http://loinc.org",
                  "code": "81293-3",
                  "display": "Description of ranges of DNA sequences examined"
                }
              ]
            },
            "valueString": "direkte Sequenzierung der codierenden Exons inkl. flankierender intronischer Bereiche"
          },
          {
            "code": {
              "coding": [
                {
                  "code": "51958-7",
                  "system": "http://loinc.org"
                }
              ]
            },
            "valueCodeableConcept": {
              "coding": [
                {
                  "code": "NM_000179.2",
                  "system": "http://www.ncbi.nlm.nih.gov/refseq"
                }
              ]
            }
          }
        ],
        "status": "final",
        "subject": {
          "reference": "Patient/mii-exa-molgen-patient-brca1"
        },
        "performer": [
          {
            "reference": "Practitioner/example-mii-molgen-practitioner-lab"
          }
        ],
        "method": {
          "coding": [
            {
              "code": "LA26398-0",
              "system": "http://loinc.org",
              "display": "Sequencing"
            }
          ]
        },
        "specimen": {
          "reference": "Specimen/mii-exa-molgen-specimen-brca1"
        },
        "device": {
          "reference": "Device/mii-exa-molgen-device-sequencer-nextseq"
        }
      },
      "request": {
        "method": "POST",
        "url": "Observation"
      }
    },
    {
      "fullUrl": "https://www.medizininformatik-initiative.de/fhir/mii-exa-molgen-untersuchte-region-true-risk-panel-v3-PALB2",
      "resource": {
        "resourceType": "Observation",
        "id": "mii-exa-molgen-untersuchte-region-true-risk-panel-v3-PALB2",
        "meta": {
          "profile": [
            "https://www.medizininformatik-initiative.de/fhir/ext/modul-molgen/StructureDefinition/untersuchte-region",
            "http://hl7.org/fhir/uv/genomics-reporting/StructureDefinition/region-studied"
          ]
        },
        "code": {
          "coding": [
            {
              "system": "http://loinc.org",
              "code": "53041-0",
              "display": "DNA region of interest panel"
            }
          ]
        },
        "category": [
          {
            "coding": [
              {
                "system": "http://terminology.hl7.org/CodeSystem/observation-category",
                "code": "laboratory",
                "display": "Laboratory"
              }
            ]
          }
        ],
        "component": [
          {
            "code": {
              "coding": [
                {
                  "system": "http://loinc.org",
                  "code": "48018-6",
                  "display": "Gene studied [ID]"
                }
              ]
            },
            "valueCodeableConcept": {
              "coding": [
                {
                  "code": "HGNC:26144",
                  "system": "http://www.genenames.org/geneId",
                  "display": "PALB2"
                }
              ]
            }
          },
          {
            "code": {
              "coding": [
                {
                  "system": "http://loinc.org",
                  "code": "81293-3",
                  "display": "Description of ranges of DNA sequences examined"
                }
              ]
            },
            "valueString": "direkte Sequenzierung der codierenden Exons inkl. flankierender intronischer Bereiche"
          },
          {
            "code": {
              "coding": [
                {
                  "code": "51958-7",
                  "system": "http://loinc.org"
                }
              ]
            },
            "valueCodeableConcept": {
              "coding": [
                {
                  "code": "NM_024675.3",
                  "system": "http://www.ncbi.nlm.nih.gov/refseq"
                }
              ]
            }
          }
        ],
        "status": "final",
        "subject": {
          "reference": "Patient/mii-exa-molgen-patient-brca1"
        },
        "performer": [
          {
            "reference": "Practitioner/example-mii-molgen-practitioner-lab"
          }
        ],
        "method": {
          "coding": [
            {
              "code": "LA26398-0",
              "system": "http://loinc.org",
              "display": "Sequencing"
            }
          ]
        },
        "specimen": {
          "reference": "Specimen/mii-exa-molgen-specimen-brca1"
        },
        "device": {
          "reference": "Device/mii-exa-molgen-device-sequencer-nextseq"
        }
      },
      "request": {
        "method": "POST",
        "url": "Observation"
      }
    },
    {
      "fullUrl": "https://www.medizininformatik-initiative.de/fhir/mii-exa-molgen-untersuchte-region-true-risk-panel-v3-PMS2",
      "resource": {
        "resourceType": "Observation",
        "id": "mii-exa-molgen-untersuchte-region-true-risk-panel-v3-PMS2",
        "meta": {
          "profile": [
            "https://www.medizininformatik-initiative.de/fhir/ext/modul-molgen/StructureDefinition/untersuchte-region",
            "http://hl7.org/fhir/uv/genomics-reporting/StructureDefinition/region-studied"
          ]
        },
        "code": {
          "coding": [
            {
              "system": "http://loinc.org",
              "code": "53041-0",
              "display": "DNA region of interest panel"
            }
          ]
        },
        "category": [
          {
            "coding": [
              {
                "system": "http://terminology.hl7.org/CodeSystem/observation-category",
                "code": "laboratory",
                "display": "Laboratory"
              }
            ]
          }
        ],
        "component": [
          {
            "code": {
              "coding": [
                {
                  "system": "http://loinc.org",
                  "code": "48018-6",
                  "display": "Gene studied [ID]"
                }
              ]
            },
            "valueCodeableConcept": {
              "coding": [
                {
                  "code": "HGNC:9122",
                  "system": "http://www.genenames.org/geneId",
                  "display": "PMS2"
                }
              ]
            }
          },
          {
            "code": {
              "coding": [
                {
                  "system": "http://loinc.org",
                  "code": "81293-3",
                  "display": "Description of ranges of DNA sequences examined"
                }
              ]
            },
            "valueString": "direkte Sequenzierung der codierenden Exons inkl. flankierender intronischer Bereiche"
          },
          {
            "code": {
              "coding": [
                {
                  "code": "51958-7",
                  "system": "http://loinc.org"
                }
              ]
            },
            "valueCodeableConcept": {
              "coding": [
                {
                  "code": "NM_000535.5",
                  "system": "http://www.ncbi.nlm.nih.gov/refseq"
                }
              ]
            }
          }
        ],
        "status": "final",
        "subject": {
          "reference": "Patient/mii-exa-molgen-patient-brca1"
        },
        "performer": [
          {
            "reference": "Practitioner/example-mii-molgen-practitioner-lab"
          }
        ],
        "method": {
          "coding": [
            {
              "code": "LA26398-0",
              "system": "http://loinc.org",
              "display": "Sequencing"
            }
          ]
        },
        "specimen": {
          "reference": "Specimen/mii-exa-molgen-specimen-brca1"
        },
        "device": {
          "reference": "Device/mii-exa-molgen-device-sequencer-nextseq"
        }
      },
      "request": {
        "method": "POST",
        "url": "Observation"
      }
    },
    {
      "fullUrl": "https://www.medizininformatik-initiative.de/fhir/mii-exa-molgen-untersuchte-region-true-risk-panel-v3-PTEN",
      "resource": {
        "resourceType": "Observation",
        "id": "mii-exa-molgen-untersuchte-region-true-risk-panel-v3-PTEN",
        "meta": {
          "profile": [
            "https://www.medizininformatik-initiative.de/fhir/ext/modul-molgen/StructureDefinition/untersuchte-region",
            "http://hl7.org/fhir/uv/genomics-reporting/StructureDefinition/region-studied"
          ]
        },
        "code": {
          "coding": [
            {
              "system": "http://loinc.org",
              "code": "53041-0",
              "display": "DNA region of interest panel"
            }
          ]
        },
        "category": [
          {
            "coding": [
              {
                "system": "http://terminology.hl7.org/CodeSystem/observation-category",
                "code": "laboratory",
                "display": "Laboratory"
              }
            ]
          }
        ],
        "component": [
          {
            "code": {
              "coding": [
                {
                  "system": "http://loinc.org",
                  "code": "48018-6",
                  "display": "Gene studied [ID]"
                }
              ]
            },
            "valueCodeableConcept": {
              "coding": [
                {
                  "code": "HGNC:9588",
                  "system": "http://www.genenames.org/geneId",
                  "display": "PTEN"
                }
              ]
            }
          },
          {
            "code": {
              "coding": [
                {
                  "system": "http://loinc.org",
                  "code": "81293-3",
                  "display": "Description of ranges of DNA sequences examined"
                }
              ]
            },
            "valueString": "direkte Sequenzierung der codierenden Exons inkl. flankierender intronischer Bereiche"
          },
          {
            "code": {
              "coding": [
                {
                  "code": "51958-7",
                  "system": "http://loinc.org"
                }
              ]
            },
            "valueCodeableConcept": {
              "coding": [
                {
                  "code": "NM_000314.4",
                  "system": "http://www.ncbi.nlm.nih.gov/refseq"
                }
              ]
            }
          }
        ],
        "status": "final",
        "subject": {
          "reference": "Patient/mii-exa-molgen-patient-brca1"
        },
        "performer": [
          {
            "reference": "Practitioner/example-mii-molgen-practitioner-lab"
          }
        ],
        "method": {
          "coding": [
            {
              "code": "LA26398-0",
              "system": "http://loinc.org",
              "display": "Sequencing"
            }
          ]
        },
        "specimen": {
          "reference": "Specimen/mii-exa-molgen-specimen-brca1"
        },
        "device": {
          "reference": "Device/mii-exa-molgen-device-sequencer-nextseq"
        }
      },
      "request": {
        "method": "POST",
        "url": "Observation"
      }
    },
    {
      "fullUrl": "https://www.medizininformatik-initiative.de/fhir/mii-exa-molgen-untersuchte-region-true-risk-panel-v3-RAD51C",
      "resource": {
        "resourceType": "Observation",
        "id": "mii-exa-molgen-untersuchte-region-true-risk-panel-v3-RAD51C",
        "meta": {
          "profile": [
            "https://www.medizininformatik-initiative.de/fhir/ext/modul-molgen/StructureDefinition/untersuchte-region",
            "http://hl7.org/fhir/uv/genomics-reporting/StructureDefinition/region-studied"
          ]
        },
        "code": {
          "coding": [
            {
              "system": "http://loinc.org",
              "code": "53041-0",
              "display": "DNA region of interest panel"
            }
          ]
        },
        "category": [
          {
            "coding": [
              {
                "system": "http://terminology.hl7.org/CodeSystem/observation-category",
                "code": "laboratory",
                "display": "Laboratory"
              }
            ]
          }
        ],
        "component": [
          {
            "code": {
              "coding": [
                {
                  "system": "http://loinc.org",
                  "code": "48018-6",
                  "display": "Gene studied [ID]"
                }
              ]
            },
            "valueCodeableConcept": {
              "coding": [
                {
                  "code": "HGNC:9820",
                  "system": "http://www.genenames.org/geneId",
                  "display": "RAD51C"
                }
              ]
            }
          },
          {
            "code": {
              "coding": [
                {
                  "system": "http://loinc.org",
                  "code": "81293-3",
                  "display": "Description of ranges of DNA sequences examined"
                }
              ]
            },
            "valueString": "direkte Sequenzierung der codierenden Exons inkl. flankierender intronischer Bereiche"
          },
          {
            "code": {
              "coding": [
                {
                  "code": "51958-7",
                  "system": "http://loinc.org"
                }
              ]
            },
            "valueCodeableConcept": {
              "coding": [
                {
                  "code": "NM_058216.2",
                  "system": "http://www.ncbi.nlm.nih.gov/refseq"
                }
              ]
            }
          }
        ],
        "status": "final",
        "subject": {
          "reference": "Patient/mii-exa-molgen-patient-brca1"
        },
        "performer": [
          {
            "reference": "Practitioner/example-mii-molgen-practitioner-lab"
          }
        ],
        "method": {
          "coding": [
            {
              "code": "LA26398-0",
              "system": "http://loinc.org",
              "display": "Sequencing"
            }
          ]
        },
        "specimen": {
          "reference": "Specimen/mii-exa-molgen-specimen-brca1"
        },
        "device": {
          "reference": "Device/mii-exa-molgen-device-sequencer-nextseq"
        }
      },
      "request": {
        "method": "POST",
        "url": "Observation"
      }
    },
    {
      "fullUrl": "https://www.medizininformatik-initiative.de/fhir/mii-exa-molgen-untersuchte-region-true-risk-panel-v3-RAD51D",
      "resource": {
        "resourceType": "Observation",
        "id": "mii-exa-molgen-untersuchte-region-true-risk-panel-v3-RAD51D",
        "meta": {
          "profile": [
            "https://www.medizininformatik-initiative.de/fhir/ext/modul-molgen/StructureDefinition/untersuchte-region",
            "http://hl7.org/fhir/uv/genomics-reporting/StructureDefinition/region-studied"
          ]
        },
        "code": {
          "coding": [
            {
              "system": "http://loinc.org",
              "code": "53041-0",
              "display": "DNA region of interest panel"
            }
          ]
        },
        "category": [
          {
            "coding": [
              {
                "system": "http://terminology.hl7.org/CodeSystem/observation-category",
                "code": "laboratory",
                "display": "Laboratory"
              }
            ]
          }
        ],
        "component": [
          {
            "code": {
              "coding": [
                {
                  "system": "http://loinc.org",
                  "code": "48018-6",
                  "display": "Gene studied [ID]"
                }
              ]
            },
            "valueCodeableConcept": {
              "coding": [
                {
                  "code": "HGNC:9823",
                  "system": "http://www.genenames.org/geneId",
                  "display": "RAD51D"
                }
              ]
            }
          },
          {
            "code": {
              "coding": [
                {
                  "system": "http://loinc.org",
                  "code": "81293-3",
                  "display": "Description of ranges of DNA sequences examined"
                }
              ]
            },
            "valueString": "direkte Sequenzierung der codierenden Exons inkl. flankierender intronischer Bereiche"
          },
          {
            "code": {
              "coding": [
                {
                  "code": "51958-7",
                  "system": "http://loinc.org"
                }
              ]
            },
            "valueCodeableConcept": {
              "coding": [
                {
                  "code": "NM_002878.3",
                  "system": "http://www.ncbi.nlm.nih.gov/refseq"
                }
              ]
            }
          }
        ],
        "status": "final",
        "subject": {
          "reference": "Patient/mii-exa-molgen-patient-brca1"
        },
        "performer": [
          {
            "reference": "Practitioner/example-mii-molgen-practitioner-lab"
          }
        ],
        "method": {
          "coding": [
            {
              "code": "LA26398-0",
              "system": "http://loinc.org",
              "display": "Sequencing"
            }
          ]
        },
        "specimen": {
          "reference": "Specimen/mii-exa-molgen-specimen-brca1"
        },
        "device": {
          "reference": "Device/mii-exa-molgen-device-sequencer-nextseq"
        }
      },
      "request": {
        "method": "POST",
        "url": "Observation"
      }
    },
    {
      "fullUrl": "https://www.medizininformatik-initiative.de/fhir/mii-exa-molgen-untersuchte-region-true-risk-panel-v3-TP53",
      "resource": {
        "resourceType": "Observation",
        "id": "mii-exa-molgen-untersuchte-region-true-risk-panel-v3-TP53",
        "meta": {
          "profile": [
            "https://www.medizininformatik-initiative.de/fhir/ext/modul-molgen/StructureDefinition/untersuchte-region",
            "http://hl7.org/fhir/uv/genomics-reporting/StructureDefinition/region-studied"
          ]
        },
        "code": {
          "coding": [
            {
              "system": "http://loinc.org",
              "code": "53041-0",
              "display": "DNA region of interest panel"
            }
          ]
        },
        "category": [
          {
            "coding": [
              {
                "system": "http://terminology.hl7.org/CodeSystem/observation-category",
                "code": "laboratory",
                "display": "Laboratory"
              }
            ]
          }
        ],
        "component": [
          {
            "code": {
              "coding": [
                {
                  "system": "http://loinc.org",
                  "code": "48018-6",
                  "display": "Gene studied [ID]"
                }
              ]
            },
            "valueCodeableConcept": {
              "coding": [
                {
                  "code": "HGNC:11998",
                  "system": "http://www.genenames.org/geneId",
                  "display": "TP53"
                }
              ]
            }
          },
          {
            "code": {
              "coding": [
                {
                  "system": "http://loinc.org",
                  "code": "81293-3",
                  "display": "Description of ranges of DNA sequences examined"
                }
              ]
            },
            "valueString": "direkte Sequenzierung der codierenden Exons inkl. flankierender intronischer Bereiche"
          },
          {
            "code": {
              "coding": [
                {
                  "code": "51958-7",
                  "system": "http://loinc.org"
                }
              ]
            },
            "valueCodeableConcept": {
              "coding": [
                {
                  "code": "NM_000546.5",
                  "system": "http://www.ncbi.nlm.nih.gov/refseq"
                }
              ]
            }
          }
        ],
        "status": "final",
        "subject": {
          "reference": "Patient/mii-exa-molgen-patient-brca1"
        },
        "performer": [
          {
            "reference": "Practitioner/example-mii-molgen-practitioner-lab"
          }
        ],
        "method": {
          "coding": [
            {
              "code": "LA26398-0",
              "system": "http://loinc.org",
              "display": "Sequencing"
            }
          ]
        },
        "specimen": {
          "reference": "Specimen/mii-exa-molgen-specimen-brca1"
        },
        "device": {
          "reference": "Device/mii-exa-molgen-device-sequencer-nextseq"
        }
      },
      "request": {
        "method": "POST",
        "url": "Observation"
      }
    }
  ]
}
