{
  "resourceType": "Bundle",
  "id": "mii-exa-befund-bundle-befund-srcc",
  "type": "transaction",
  "timestamp": "2022-12-16T10:09:00+01:00",
  "entry": [
    {
      "fullUrl": "https://www.medizininformatik-initiative.de/fhir/mii-exa-molgen-patient-srcc",
      "resource": {
        "resourceType": "Patient",
        "id": "mii-exa-molgen-patient-srcc",
        "identifier": [
          {
            "use": "usual",
            "type": {
              "coding": [
                {
                  "code": "PSEUDED",
                  "system": "http://terminology.hl7.org/CodeSystem/v3-ObservationValue"
                }
              ]
            },
            "system": "https://www.charite.de/fhir/sid/pseudonym",
            "value": "66036015"
          }
        ],
        "deceasedBoolean": false,
        "address": [
          {
            "type": "both",
            "postalCode": "10",
            "country": "DE"
          }
        ],
        "gender": "male",
        "birthDate": "1986-01"
      },
      "request": {
        "method": "PUT",
        "url": "Patient/mii-exa-molgen-patient-srcc"
      }
    },
    {
      "fullUrl": "https://www.medizininformatik-initiative.de/fhir/mii-exa-molgen-practitioner-lab",
      "resource": {
        "resourceType": "Practitioner",
        "id": "mii-exa-molgen-practitioner-lab",
        "active": true,
        "name": [
          {
            "use": "official",
            "text": "Dr. Daniel Schmidt",
            "family": "Schmidt",
            "given": [
              "Daniel"
            ],
            "prefix": [
              "Dr."
            ]
          }
        ]
      },
      "request": {
        "method": "PUT",
        "url": "Practitioner/mii-exa-molgen-practitioner-lab"
      }
    },
    {
      "fullUrl": "https://www.medizininformatik-initiative.de/fhir/mii-exa-molgen-practitioner-physician",
      "resource": {
        "resourceType": "Practitioner",
        "id": "mii-exa-molgen-practitioner-physician",
        "active": true,
        "name": [
          {
            "use": "official",
            "text": "Dr. Linda Rubens",
            "family": "Rubens",
            "given": [
              "Linda"
            ],
            "prefix": [
              "Dr."
            ]
          }
        ]
      },
      "request": {
        "method": "PUT",
        "url": "Practitioner/mii-exa-molgen-practitioner-physician"
      }
    },
    {
      "fullUrl": "https://www.medizininformatik-initiative.de/fhir/mii-exa-molgen-specimen-srcc",
      "resource": {
        "resourceType": "Specimen",
        "id": "mii-exa-molgen-specimen-srcc",
        "meta": {
          "profile": [
            "https://www.medizininformatik-initiative.de/fhir/ext/modul-biobank/StructureDefinition/SpecimenCore"
          ]
        },
        "type": {
          "coding": [
            {
              "system": "http://snomed.info/sct",
              "code": "445295009",
              "display": "Blood specimen with edetic acid (specimen)"
            }
          ]
        },
        "status": "available",
        "subject": {
          "reference": "Patient/mii-exa-molgen-patient-srcc"
        },
        "receivedTime": "2022-11-30",
        "collection": {
          "collectedDateTime": "2022-11-30"
        },
        "identifier": [
          {
            "system": "https://www.charite.de/fhir/sid/bioproben",
            "value": "00070024"
          }
        ]
      },
      "request": {
        "method": "PUT",
        "url": "Specimen/mii-exa-molgen-specimen-srcc"
      }
    },
    {
      "fullUrl": "https://www.medizininformatik-initiative.de/fhir/mii-exa-molgen-specimen-srcc-2",
      "resource": {
        "resourceType": "Specimen",
        "id": "mii-exa-molgen-specimen-srcc-2",
        "meta": {
          "profile": [
            "https://www.medizininformatik-initiative.de/fhir/ext/modul-biobank/StructureDefinition/SpecimenCore"
          ]
        },
        "type": {
          "coding": [
            {
              "system": "http://snomed.info/sct",
              "code": "445295009",
              "display": "Blood specimen with edetic acid (specimen)"
            }
          ]
        },
        "status": "available",
        "subject": {
          "reference": "Patient/mii-exa-molgen-patient-srcc"
        },
        "receivedTime": "2022-11-30",
        "collection": {
          "collectedDateTime": "2022-11-30"
        },
        "identifier": [
          {
            "system": "https://www.charite.de/fhir/sid/bioproben",
            "value": "00070025"
          }
        ]
      },
      "request": {
        "method": "PUT",
        "url": "Specimen/mii-exa-molgen-specimen-srcc-2"
      }
    },
    {
      "fullUrl": "https://www.medizininformatik-initiative.de/fhir/mii-exa-molgen-molekulargenetischer-befundbericht-srcc",
      "resource": {
        "resourceType": "DiagnosticReport",
        "id": "mii-exa-molgen-molekulargenetischer-befundbericht-srcc",
        "meta": {
          "profile": [
            "https://www.medizininformatik-initiative.de/fhir/ext/modul-molgen/StructureDefinition/molekulargenetischer-befundbericht",
            "http://hl7.org/fhir/uv/genomics-reporting/StructureDefinition/genomics-report"
          ]
        },
        "category": [
          {
            "coding": [
              {
                "system": "http://terminology.hl7.org/CodeSystem/v2-0074",
                "code": "GE",
                "display": "Genetics"
              }
            ]
          }
        ],
        "extension": [
          {
            "url": "http://hl7.org/fhir/StructureDefinition/workflow-supportingInfo",
            "valueReference": {
              "reference": "FamilyMemberHistory/mii-exa-molgen-family-member-history-srcc"
            }
          }
        ],
        "basedOn": [
          {
            "reference": "ServiceRequest/mii-exa-molgen-anforderung-srcc"
          }
        ],
        "status": "final",
        "code": {
          "coding": [
            {
              "code": "51969-4",
              "system": "http://loinc.org",
              "display": "Genetic analysis report"
            }
          ]
        },
        "subject": {
          "reference": "Patient/mii-exa-molgen-patient-srcc"
        },
        "performer": [
          {
            "reference": "Practitioner/mii-exa-molgen-practitioner-lab"
          }
        ],
        "specimen": [
          {
            "reference": "Specimen/mii-exa-molgen-specimen-srcc"
          },
          {
            "reference": "Specimen/mii-exa-molgen-specimen-srcc-2"
          }
        ],
        "result": [
          {
            "reference": "Observation/mii-exa-molgen-diagnostische-implikation-srcc-ctnna1"
          },
          {
            "reference": "Observation/mii-exa-molgen-variante-srcc-ctnna1"
          },
          {
            "reference": "Observation/mii-exa-molgen-untersuchte-region-srcc-apc"
          },
          {
            "reference": "Observation/mii-exa-molgen-untersuchte-region-srcc-atm"
          },
          {
            "reference": "Observation/mii-exa-molgen-untersuchte-region-srcc-brca1"
          },
          {
            "reference": "Observation/mii-exa-molgen-untersuchte-region-srcc-brca2"
          },
          {
            "reference": "Observation/mii-exa-molgen-untersuchte-region-srcc-cdh1"
          },
          {
            "reference": "Observation/mii-exa-molgen-untersuchte-region-srcc-mlh1"
          },
          {
            "reference": "Observation/mii-exa-molgen-untersuchte-region-srcc-msh2"
          },
          {
            "reference": "Observation/mii-exa-molgen-untersuchte-region-srcc-msh3"
          },
          {
            "reference": "Observation/mii-exa-molgen-untersuchte-region-srcc-msh6"
          },
          {
            "reference": "Observation/mii-exa-molgen-untersuchte-region-srcc-mutyh"
          },
          {
            "reference": "Observation/mii-exa-molgen-untersuchte-region-srcc-nthl1"
          },
          {
            "reference": "Observation/mii-exa-molgen-untersuchte-region-srcc-pms2"
          },
          {
            "reference": "Observation/mii-exa-molgen-untersuchte-region-srcc-pold1"
          },
          {
            "reference": "Observation/mii-exa-molgen-untersuchte-region-srcc-pole"
          },
          {
            "reference": "Observation/mii-exa-molgen-untersuchte-region-srcc-smad4"
          },
          {
            "reference": "Observation/mii-exa-molgen-untersuchte-region-srcc-stk11"
          },
          {
            "reference": "Observation/mii-exa-molgen-untersuchte-region-srcc-tp53"
          },
          {
            "reference": "Observation/mii-exa-molgen-untersuchte-region-srcc-ctnna1"
          }
        ],
        "conclusion": "Nachweis der pathogenen Variante im CTNNA1-Gen."
      },
      "request": {
        "method": "PUT",
        "url": "DiagnosticReport/mii-exa-molgen-molekulargenetischer-befundbericht-srcc"
      }
    },
    {
      "fullUrl": "https://www.medizininformatik-initiative.de/fhir/mii-exa-molgen-anforderung-srcc",
      "resource": {
        "resourceType": "ServiceRequest",
        "id": "mii-exa-molgen-anforderung-srcc",
        "meta": {
          "profile": [
            "https://www.medizininformatik-initiative.de/fhir/ext/modul-molgen/StructureDefinition/anforderung-genetischer-test"
          ]
        },
        "identifier": [
          {
            "system": "https://www.charite.de/fhir/auftragsnummern",
            "value": "7B369EB0"
          }
        ],
        "status": "active",
        "intent": "order",
        "category": [
          {
            "coding": [
              {
                "code": "108252007",
                "system": "http://snomed.info/sct",
                "display": "Laboratory procedure (procedure)"
              }
            ]
          }
        ],
        "code": {
          "coding": [
            {
              "code": "405825005",
              "system": "http://snomed.info/sct",
              "display": "Molecular genetic test (procedure)"
            }
          ],
          "text": "Molekulargenetische Untersuchung (Stufendiagnostik) der relevanten Gene"
        },
        "subject": {
          "reference": "Patient/mii-exa-molgen-patient-srcc"
        },
        "authoredOn": "2022-11-30",
        "requester": {
          "reference": "Practitioner/mii-exa-molgen-practitioner-physician"
        },
        "specimen": [
          {
            "reference": "Specimen/mii-exa-molgen-specimen-srcc"
          }
        ],
        "reasonCode": [
          {
            "coding": [
              {
                "code": "87737001",
                "system": "http://snomed.info/sct",
                "display": "Signet ring cell carcinoma (morphologic abnormality)"
              },
              {
                "code": "C16.9",
                "system": "http://fhir.de/CodeSystem/bfarm/icd-10-gm",
                "version": "2022",
                "display": "Bösartige Neubildung des Magens, nicht näher bezeichnet"
              }
            ],
            "text": "Eigenanamnese: Siegelringkarzinom des Magens, diffus wachsend"
          },
          {
            "coding": [
              {
                "code": "429740004",
                "system": "http://snomed.info/sct",
                "display": "Family history of malignant neoplasm of breast (situation)"
              }
            ],
            "text": "Mutter an Brustkrebs verstorben"
          }
        ]
      },
      "request": {
        "method": "PUT",
        "url": "ServiceRequest/mii-exa-molgen-anforderung-srcc"
      }
    },
    {
      "fullUrl": "https://www.medizininformatik-initiative.de/fhir/mii-exa-molgen-device-sequencer",
      "resource": {
        "resourceType": "Device",
        "id": "mii-exa-molgen-device-sequencer",
        "status": "active",
        "manufacturer": "Illumina",
        "deviceName": [
          {
            "name": "MiSeq",
            "type": "manufacturer-name"
          }
        ]
      },
      "request": {
        "method": "PUT",
        "url": "Device/mii-exa-molgen-device-sequencer"
      }
    },
    {
      "fullUrl": "https://www.medizininformatik-initiative.de/fhir/mii-exa-molgen-variante-srcc-ctnna1",
      "resource": {
        "resourceType": "Observation",
        "id": "mii-exa-molgen-variante-srcc-ctnna1",
        "meta": {
          "profile": [
            "https://www.medizininformatik-initiative.de/fhir/ext/modul-molgen/StructureDefinition/variante",
            "http://hl7.org/fhir/uv/genomics-reporting/StructureDefinition/variant"
          ]
        },
        "code": {
          "coding": [
            {
              "system": "http://loinc.org",
              "code": "69548-6",
              "display": "Genetic variant assessment"
            }
          ]
        },
        "category": [
          {
            "coding": [
              {
                "system": "http://terminology.hl7.org/CodeSystem/observation-category",
                "code": "laboratory",
                "display": "Laboratory"
              }
            ]
          }
        ],
        "component": [
          {
            "code": {
              "coding": [
                {
                  "system": "http://loinc.org",
                  "code": "48018-6"
                }
              ]
            },
            "valueCodeableConcept": {
              "coding": [
                {
                  "code": "HGNC:2509",
                  "system": "http://www.genenames.org/geneId",
                  "display": "CTNNA1"
                }
              ]
            }
          },
          {
            "code": {
              "coding": [
                {
                  "system": "http://loinc.org",
                  "code": "51958-7"
                }
              ]
            },
            "valueCodeableConcept": {
              "coding": [
                {
                  "code": "NM_001903.5",
                  "system": "http://www.ncbi.nlm.nih.gov/refseq"
                }
              ]
            }
          },
          {
            "code": {
              "coding": [
                {
                  "system": "http://loinc.org",
                  "code": "48004-6"
                }
              ]
            },
            "valueCodeableConcept": {
              "coding": [
                {
                  "code": "NM_001903.5:c.1030del",
                  "system": "http://varnomen.hgvs.org"
                }
              ]
            }
          },
          {
            "code": {
              "coding": [
                {
                  "system": "http://loinc.org",
                  "code": "81290-9"
                }
              ]
            },
            "valueCodeableConcept": {
              "coding": [
                {
                  "code": "NC_000005.9:g.138163372del",
                  "system": "http://varnomen.hgvs.org"
                }
              ]
            }
          },
          {
            "code": {
              "coding": [
                {
                  "system": "http://loinc.org",
                  "code": "48013-7"
                }
              ]
            },
            "valueCodeableConcept": {
              "coding": [
                {
                  "code": "NC_000005.9",
                  "system": "http://www.ncbi.nlm.nih.gov/refseq"
                }
              ]
            }
          },
          {
            "code": {
              "coding": [
                {
                  "system": "http://loinc.org",
                  "code": "48005-3"
                }
              ]
            },
            "valueCodeableConcept": {
              "coding": [
                {
                  "code": "p.(Leu344CysfsTer25)",
                  "system": "http://varnomen.hgvs.org"
                }
              ]
            }
          },
          {
            "code": {
              "coding": [
                {
                  "system": "http://loinc.org",
                  "code": "53034-5"
                }
              ]
            },
            "valueCodeableConcept": {
              "coding": [
                {
                  "code": "LA6706-1",
                  "system": "http://loinc.org",
                  "display": "Heterozygous"
                }
              ]
            }
          },
          {
            "code": {
              "coding": [
                {
                  "system": "http://loinc.org",
                  "code": "48019-4"
                }
              ]
            },
            "valueCodeableConcept": {
              "coding": [
                {
                  "code": "SO:0000159",
                  "system": "http://sequenceontology.org",
                  "display": "deletion"
                }
              ]
            }
          },
          {
            "code": {
              "coding": [
                {
                  "system": "http://loinc.org",
                  "code": "48006-1"
                }
              ]
            },
            "valueCodeableConcept": {
              "coding": [
                {
                  "code": "LA6694-9",
                  "system": "http://loinc.org",
                  "display": "Frameshift"
                }
              ]
            }
          },
          {
            "code": {
              "coding": [
                {
                  "system": "http://loinc.org",
                  "code": "48001-2"
                }
              ]
            },
            "valueCodeableConcept": {
              "coding": [
                {
                  "code": "5q31.2",
                  "system": "urn:oid:2.16.840.1.113883.6.335"
                }
              ]
            }
          }
        ],
        "basedOn": [
          {
            "reference": "ServiceRequest/mii-exa-molgen-anforderung-srcc"
          }
        ],
        "status": "final",
        "subject": {
          "reference": "Patient/mii-exa-molgen-patient-srcc"
        },
        "valueCodeableConcept": {
          "coding": [
            {
              "code": "LA9633-4",
              "system": "http://loinc.org",
              "display": "Present"
            }
          ]
        },
        "method": {
          "coding": [
            {
              "code": "LA26398-0",
              "system": "http://loinc.org",
              "display": "Sequencing"
            }
          ]
        },
        "specimen": {
          "reference": "Specimen/mii-exa-molgen-specimen-srcc"
        },
        "device": {
          "reference": "Device/mii-exa-molgen-device-sequencer"
        }
      },
      "request": {
        "method": "PUT",
        "url": "Observation/mii-exa-molgen-variante-srcc-ctnna1"
      }
    },
    {
      "fullUrl": "https://www.medizininformatik-initiative.de/fhir/mii-exa-molgen-diagnostische-implikation-srcc-ctnna1",
      "resource": {
        "resourceType": "Observation",
        "id": "mii-exa-molgen-diagnostische-implikation-srcc-ctnna1",
        "meta": {
          "profile": [
            "https://www.medizininformatik-initiative.de/fhir/ext/modul-molgen/StructureDefinition/diagnostische-implikation",
            "http://hl7.org/fhir/uv/genomics-reporting/StructureDefinition/diagnostic-implication"
          ]
        },
        "code": {
          "coding": [
            {
              "system": "http://hl7.org/fhir/uv/genomics-reporting/CodeSystem/tbd-codes-cs",
              "code": "diagnostic-implication",
              "display": "Diagnostische Implikation"
            }
          ]
        },
        "category": [
          {
            "coding": [
              {
                "system": "http://terminology.hl7.org/CodeSystem/observation-category",
                "code": "laboratory",
                "display": "Laboratory"
              }
            ]
          }
        ],
        "extension": [
          {
            "url": "http://hl7.org/fhir/uv/genomics-reporting/StructureDefinition/genomics-artifact",
            "valueRelatedArtifact": {
              "type": "citation",
              "citation": "ClinGen",
              "url": "https://search.clinicalgenome.org/kb/gene-dosage/HGNC:2509"
            }
          }
        ],
        "component": [
          {
            "code": {
              "coding": [
                {
                  "system": "http://hl7.org/fhir/uv/genomics-reporting/CodeSystem/tbd-codes-cs",
                  "code": "conclusion-string"
                }
              ]
            },
            "valueString": "Diese Variante wird nach den ACMG/AMP-Kriterien zusammenfasssend als pathogen bewertet entsprechend IARC Class 5."
          },
          {
            "code": {
              "coding": [
                {
                  "system": "http://loinc.org",
                  "code": "53037-8"
                }
              ]
            },
            "valueCodeableConcept": {
              "coding": [
                {
                  "code": "LA6668-3",
                  "system": "http://loinc.org",
                  "display": "Pathogenic"
                }
              ]
            }
          },
          {
            "code": {
              "coding": [
                {
                  "system": "http://hl7.org/fhir/uv/genomics-reporting/CodeSystem/tbd-codes-cs",
                  "code": "functional-effect"
                }
              ]
            },
            "valueCodeableConcept": {
              "coding": [
                {
                  "code": "SO:0002054",
                  "system": "http://sequenceontology.org",
                  "display": "loss_of_function_variant"
                }
              ]
            }
          },
          {
            "code": {
              "coding": [
                {
                  "system": "http://loinc.org",
                  "code": "81259-4"
                }
              ]
            },
            "valueCodeableConcept": {
              "coding": [
                {
                  "code": "716859000",
                  "system": "http://human-phenotype-ontology.org",
                  "display": "Hereditary diffuse carcinoma of stomach (disorder)"
                }
              ]
            }
          }
        ],
        "status": "final",
        "subject": {
          "reference": "Patient/mii-exa-molgen-patient-srcc"
        },
        "performer": [
          {
            "reference": "Practitioner/mii-exa-molgen-practitioner-lab"
          }
        ],
        "derivedFrom": [
          {
            "reference": "Observation/mii-exa-molgen-variante-srcc-ctnna1"
          }
        ]
      },
      "request": {
        "method": "PUT",
        "url": "Observation/mii-exa-molgen-diagnostische-implikation-srcc-ctnna1"
      }
    },
    {
      "fullUrl": "https://www.medizininformatik-initiative.de/fhir/mii-exa-molgen-untersuchte-region-srcc-apc",
      "resource": {
        "resourceType": "Observation",
        "id": "mii-exa-molgen-untersuchte-region-srcc-apc",
        "meta": {
          "profile": [
            "https://www.medizininformatik-initiative.de/fhir/ext/modul-molgen/StructureDefinition/untersuchte-region",
            "http://hl7.org/fhir/uv/genomics-reporting/StructureDefinition/region-studied"
          ]
        },
        "code": {
          "coding": [
            {
              "system": "http://loinc.org",
              "code": "53041-0",
              "display": "DNA region of interest panel"
            }
          ]
        },
        "category": [
          {
            "coding": [
              {
                "system": "http://terminology.hl7.org/CodeSystem/observation-category",
                "code": "laboratory",
                "display": "Laboratory"
              }
            ]
          }
        ],
        "component": [
          {
            "code": {
              "coding": [
                {
                  "system": "http://loinc.org",
                  "code": "48018-6",
                  "display": "Gene studied [ID]"
                }
              ]
            },
            "valueCodeableConcept": {
              "coding": [
                {
                  "code": "HGNC:583",
                  "system": "http://www.genenames.org/geneId",
                  "display": "APC"
                }
              ]
            }
          },
          {
            "code": {
              "coding": [
                {
                  "system": "http://loinc.org",
                  "code": "81293-3",
                  "display": "Description of ranges of DNA sequences examined"
                }
              ]
            },
            "valueString": "direkte Sequenzierung der codierenden Exons inkl. flankierender intronischer Bereiche"
          },
          {
            "code": {
              "coding": [
                {
                  "code": "51958-7",
                  "system": "http://loinc.org"
                }
              ]
            },
            "valueCodeableConcept": {
              "coding": [
                {
                  "code": "NM_000038.4",
                  "system": "http://www.ncbi.nlm.nih.gov/refseq"
                }
              ]
            }
          }
        ],
        "status": "final",
        "subject": {
          "reference": "Patient/mii-exa-molgen-patient-srcc"
        },
        "performer": [
          {
            "reference": "Practitioner/mii-exa-molgen-practitioner-lab"
          }
        ],
        "method": {
          "coding": [
            {
              "code": "LA26398-0",
              "system": "http://loinc.org",
              "display": "Sequencing"
            }
          ]
        },
        "specimen": {
          "reference": "Specimen/mii-exa-molgen-specimen-srcc"
        },
        "device": {
          "reference": "Device/mii-exa-molgen-device-sequencer"
        }
      },
      "request": {
        "method": "PUT",
        "url": "Observation/mii-exa-molgen-untersuchte-region-srcc-apc"
      }
    },
    {
      "fullUrl": "https://www.medizininformatik-initiative.de/fhir/mii-exa-molgen-untersuchte-region-srcc-atm",
      "resource": {
        "resourceType": "Observation",
        "id": "mii-exa-molgen-untersuchte-region-srcc-atm",
        "meta": {
          "profile": [
            "https://www.medizininformatik-initiative.de/fhir/ext/modul-molgen/StructureDefinition/untersuchte-region",
            "http://hl7.org/fhir/uv/genomics-reporting/StructureDefinition/region-studied"
          ]
        },
        "code": {
          "coding": [
            {
              "system": "http://loinc.org",
              "code": "53041-0",
              "display": "DNA region of interest panel"
            }
          ]
        },
        "category": [
          {
            "coding": [
              {
                "system": "http://terminology.hl7.org/CodeSystem/observation-category",
                "code": "laboratory",
                "display": "Laboratory"
              }
            ]
          }
        ],
        "component": [
          {
            "code": {
              "coding": [
                {
                  "system": "http://loinc.org",
                  "code": "48018-6",
                  "display": "Gene studied [ID]"
                }
              ]
            },
            "valueCodeableConcept": {
              "coding": [
                {
                  "code": "HGNC:795",
                  "system": "http://www.genenames.org/geneId",
                  "display": "ATM"
                }
              ]
            }
          },
          {
            "code": {
              "coding": [
                {
                  "system": "http://loinc.org",
                  "code": "81293-3",
                  "display": "Description of ranges of DNA sequences examined"
                }
              ]
            },
            "valueString": "direkte Sequenzierung der codierenden Exons inkl. flankierender intronischer Bereiche"
          },
          {
            "code": {
              "coding": [
                {
                  "code": "51958-7",
                  "system": "http://loinc.org"
                }
              ]
            },
            "valueCodeableConcept": {
              "coding": [
                {
                  "code": "NM_000051.3",
                  "system": "http://www.ncbi.nlm.nih.gov/refseq"
                }
              ]
            }
          }
        ],
        "status": "final",
        "subject": {
          "reference": "Patient/mii-exa-molgen-patient-srcc"
        },
        "performer": [
          {
            "reference": "Practitioner/mii-exa-molgen-practitioner-lab"
          }
        ],
        "method": {
          "coding": [
            {
              "code": "LA26398-0",
              "system": "http://loinc.org",
              "display": "Sequencing"
            }
          ]
        },
        "specimen": {
          "reference": "Specimen/mii-exa-molgen-specimen-srcc"
        },
        "device": {
          "reference": "Device/mii-exa-molgen-device-sequencer"
        }
      },
      "request": {
        "method": "PUT",
        "url": "Observation/mii-exa-molgen-untersuchte-region-srcc-atm"
      }
    },
    {
      "fullUrl": "https://www.medizininformatik-initiative.de/fhir/mii-exa-molgen-untersuchte-region-srcc-brca1",
      "resource": {
        "resourceType": "Observation",
        "id": "mii-exa-molgen-untersuchte-region-srcc-brca1",
        "meta": {
          "profile": [
            "https://www.medizininformatik-initiative.de/fhir/ext/modul-molgen/StructureDefinition/untersuchte-region",
            "http://hl7.org/fhir/uv/genomics-reporting/StructureDefinition/region-studied"
          ]
        },
        "code": {
          "coding": [
            {
              "system": "http://loinc.org",
              "code": "53041-0",
              "display": "DNA region of interest panel"
            }
          ]
        },
        "category": [
          {
            "coding": [
              {
                "system": "http://terminology.hl7.org/CodeSystem/observation-category",
                "code": "laboratory",
                "display": "Laboratory"
              }
            ]
          }
        ],
        "component": [
          {
            "code": {
              "coding": [
                {
                  "system": "http://loinc.org",
                  "code": "48018-6",
                  "display": "Gene studied [ID]"
                }
              ]
            },
            "valueCodeableConcept": {
              "coding": [
                {
                  "code": "HGNC:1100",
                  "system": "http://www.genenames.org/geneId",
                  "display": "BRCA1"
                }
              ]
            }
          },
          {
            "code": {
              "coding": [
                {
                  "system": "http://loinc.org",
                  "code": "81293-3",
                  "display": "Description of ranges of DNA sequences examined"
                }
              ]
            },
            "valueString": "direkte Sequenzierung der codierenden Exons inkl. flankierender intronischer Bereiche"
          },
          {
            "code": {
              "coding": [
                {
                  "code": "51958-7",
                  "system": "http://loinc.org"
                }
              ]
            },
            "valueCodeableConcept": {
              "coding": [
                {
                  "code": "NM_007294.3",
                  "system": "http://www.ncbi.nlm.nih.gov/refseq"
                }
              ]
            }
          }
        ],
        "status": "final",
        "subject": {
          "reference": "Patient/mii-exa-molgen-patient-srcc"
        },
        "performer": [
          {
            "reference": "Practitioner/mii-exa-molgen-practitioner-lab"
          }
        ],
        "method": {
          "coding": [
            {
              "code": "LA26398-0",
              "system": "http://loinc.org",
              "display": "Sequencing"
            }
          ]
        },
        "specimen": {
          "reference": "Specimen/mii-exa-molgen-specimen-srcc"
        },
        "device": {
          "reference": "Device/mii-exa-molgen-device-sequencer"
        }
      },
      "request": {
        "method": "PUT",
        "url": "Observation/mii-exa-molgen-untersuchte-region-srcc-brca1"
      }
    },
    {
      "fullUrl": "https://www.medizininformatik-initiative.de/fhir/mii-exa-molgen-untersuchte-region-srcc-brca2",
      "resource": {
        "resourceType": "Observation",
        "id": "mii-exa-molgen-untersuchte-region-srcc-brca2",
        "meta": {
          "profile": [
            "https://www.medizininformatik-initiative.de/fhir/ext/modul-molgen/StructureDefinition/untersuchte-region",
            "http://hl7.org/fhir/uv/genomics-reporting/StructureDefinition/region-studied"
          ]
        },
        "code": {
          "coding": [
            {
              "system": "http://loinc.org",
              "code": "53041-0",
              "display": "DNA region of interest panel"
            }
          ]
        },
        "category": [
          {
            "coding": [
              {
                "system": "http://terminology.hl7.org/CodeSystem/observation-category",
                "code": "laboratory",
                "display": "Laboratory"
              }
            ]
          }
        ],
        "component": [
          {
            "code": {
              "coding": [
                {
                  "system": "http://loinc.org",
                  "code": "48018-6",
                  "display": "Gene studied [ID]"
                }
              ]
            },
            "valueCodeableConcept": {
              "coding": [
                {
                  "code": "HGNC:1101",
                  "system": "http://www.genenames.org/geneId",
                  "display": "BRCA2"
                }
              ]
            }
          },
          {
            "code": {
              "coding": [
                {
                  "system": "http://loinc.org",
                  "code": "81293-3",
                  "display": "Description of ranges of DNA sequences examined"
                }
              ]
            },
            "valueString": "direkte Sequenzierung der codierenden Exons inkl. flankierender intronischer Bereiche"
          },
          {
            "code": {
              "coding": [
                {
                  "code": "51958-7",
                  "system": "http://loinc.org"
                }
              ]
            },
            "valueCodeableConcept": {
              "coding": [
                {
                  "code": "NM_000059.3",
                  "system": "http://www.ncbi.nlm.nih.gov/refseq"
                }
              ]
            }
          }
        ],
        "status": "final",
        "subject": {
          "reference": "Patient/mii-exa-molgen-patient-srcc"
        },
        "performer": [
          {
            "reference": "Practitioner/mii-exa-molgen-practitioner-lab"
          }
        ],
        "method": {
          "coding": [
            {
              "code": "LA26398-0",
              "system": "http://loinc.org",
              "display": "Sequencing"
            }
          ]
        },
        "specimen": {
          "reference": "Specimen/mii-exa-molgen-specimen-srcc"
        },
        "device": {
          "reference": "Device/mii-exa-molgen-device-sequencer"
        }
      },
      "request": {
        "method": "PUT",
        "url": "Observation/mii-exa-molgen-untersuchte-region-srcc-brca2"
      }
    },
    {
      "fullUrl": "https://www.medizininformatik-initiative.de/fhir/mii-exa-molgen-untersuchte-region-srcc-cdh1",
      "resource": {
        "resourceType": "Observation",
        "id": "mii-exa-molgen-untersuchte-region-srcc-cdh1",
        "meta": {
          "profile": [
            "https://www.medizininformatik-initiative.de/fhir/ext/modul-molgen/StructureDefinition/untersuchte-region",
            "http://hl7.org/fhir/uv/genomics-reporting/StructureDefinition/region-studied"
          ]
        },
        "code": {
          "coding": [
            {
              "system": "http://loinc.org",
              "code": "53041-0",
              "display": "DNA region of interest panel"
            }
          ]
        },
        "category": [
          {
            "coding": [
              {
                "system": "http://terminology.hl7.org/CodeSystem/observation-category",
                "code": "laboratory",
                "display": "Laboratory"
              }
            ]
          }
        ],
        "component": [
          {
            "code": {
              "coding": [
                {
                  "system": "http://loinc.org",
                  "code": "48018-6",
                  "display": "Gene studied [ID]"
                }
              ]
            },
            "valueCodeableConcept": {
              "coding": [
                {
                  "code": "HGNC:1748",
                  "system": "http://www.genenames.org/geneId",
                  "display": "CDH1"
                }
              ]
            }
          },
          {
            "code": {
              "coding": [
                {
                  "system": "http://loinc.org",
                  "code": "81293-3",
                  "display": "Description of ranges of DNA sequences examined"
                }
              ]
            },
            "valueString": "direkte Sequenzierung der codierenden Exons inkl. flankierender intronischer Bereiche"
          },
          {
            "code": {
              "coding": [
                {
                  "code": "51958-7",
                  "system": "http://loinc.org"
                }
              ]
            },
            "valueCodeableConcept": {
              "coding": [
                {
                  "code": "NM_004360.4",
                  "system": "http://www.ncbi.nlm.nih.gov/refseq"
                }
              ]
            }
          }
        ],
        "status": "final",
        "subject": {
          "reference": "Patient/mii-exa-molgen-patient-srcc"
        },
        "performer": [
          {
            "reference": "Practitioner/mii-exa-molgen-practitioner-lab"
          }
        ],
        "method": {
          "coding": [
            {
              "code": "LA26398-0",
              "system": "http://loinc.org",
              "display": "Sequencing"
            }
          ]
        },
        "specimen": {
          "reference": "Specimen/mii-exa-molgen-specimen-srcc"
        },
        "device": {
          "reference": "Device/mii-exa-molgen-device-sequencer"
        }
      },
      "request": {
        "method": "PUT",
        "url": "Observation/mii-exa-molgen-untersuchte-region-srcc-cdh1"
      }
    },
    {
      "fullUrl": "https://www.medizininformatik-initiative.de/fhir/mii-exa-molgen-untersuchte-region-srcc-mlh1",
      "resource": {
        "resourceType": "Observation",
        "id": "mii-exa-molgen-untersuchte-region-srcc-mlh1",
        "meta": {
          "profile": [
            "https://www.medizininformatik-initiative.de/fhir/ext/modul-molgen/StructureDefinition/untersuchte-region",
            "http://hl7.org/fhir/uv/genomics-reporting/StructureDefinition/region-studied"
          ]
        },
        "code": {
          "coding": [
            {
              "system": "http://loinc.org",
              "code": "53041-0",
              "display": "DNA region of interest panel"
            }
          ]
        },
        "category": [
          {
            "coding": [
              {
                "system": "http://terminology.hl7.org/CodeSystem/observation-category",
                "code": "laboratory",
                "display": "Laboratory"
              }
            ]
          }
        ],
        "component": [
          {
            "code": {
              "coding": [
                {
                  "system": "http://loinc.org",
                  "code": "48018-6",
                  "display": "Gene studied [ID]"
                }
              ]
            },
            "valueCodeableConcept": {
              "coding": [
                {
                  "code": "HGNC:7127",
                  "system": "http://www.genenames.org/geneId",
                  "display": "MLH1"
                }
              ]
            }
          },
          {
            "code": {
              "coding": [
                {
                  "system": "http://loinc.org",
                  "code": "81293-3",
                  "display": "Description of ranges of DNA sequences examined"
                }
              ]
            },
            "valueString": "direkte Sequenzierung der codierenden Exons inkl. flankierender intronischer Bereiche"
          },
          {
            "code": {
              "coding": [
                {
                  "code": "51958-7",
                  "system": "http://loinc.org"
                }
              ]
            },
            "valueCodeableConcept": {
              "coding": [
                {
                  "code": "NM_000249.3",
                  "system": "http://www.ncbi.nlm.nih.gov/refseq"
                }
              ]
            }
          }
        ],
        "status": "final",
        "subject": {
          "reference": "Patient/mii-exa-molgen-patient-srcc"
        },
        "performer": [
          {
            "reference": "Practitioner/mii-exa-molgen-practitioner-lab"
          }
        ],
        "method": {
          "coding": [
            {
              "code": "LA26398-0",
              "system": "http://loinc.org",
              "display": "Sequencing"
            }
          ]
        },
        "specimen": {
          "reference": "Specimen/mii-exa-molgen-specimen-srcc"
        },
        "device": {
          "reference": "Device/mii-exa-molgen-device-sequencer"
        }
      },
      "request": {
        "method": "PUT",
        "url": "Observation/mii-exa-molgen-untersuchte-region-srcc-mlh1"
      }
    },
    {
      "fullUrl": "https://www.medizininformatik-initiative.de/fhir/mii-exa-molgen-untersuchte-region-srcc-msh2",
      "resource": {
        "resourceType": "Observation",
        "id": "mii-exa-molgen-untersuchte-region-srcc-msh2",
        "meta": {
          "profile": [
            "https://www.medizininformatik-initiative.de/fhir/ext/modul-molgen/StructureDefinition/untersuchte-region",
            "http://hl7.org/fhir/uv/genomics-reporting/StructureDefinition/region-studied"
          ]
        },
        "code": {
          "coding": [
            {
              "system": "http://loinc.org",
              "code": "53041-0",
              "display": "DNA region of interest panel"
            }
          ]
        },
        "category": [
          {
            "coding": [
              {
                "system": "http://terminology.hl7.org/CodeSystem/observation-category",
                "code": "laboratory",
                "display": "Laboratory"
              }
            ]
          }
        ],
        "component": [
          {
            "code": {
              "coding": [
                {
                  "system": "http://loinc.org",
                  "code": "48018-6",
                  "display": "Gene studied [ID]"
                }
              ]
            },
            "valueCodeableConcept": {
              "coding": [
                {
                  "code": "HGNC:7325",
                  "system": "http://www.genenames.org/geneId",
                  "display": "MSH2"
                }
              ]
            }
          },
          {
            "code": {
              "coding": [
                {
                  "system": "http://loinc.org",
                  "code": "81293-3",
                  "display": "Description of ranges of DNA sequences examined"
                }
              ]
            },
            "valueString": "direkte Sequenzierung der codierenden Exons inkl. flankierender intronischer Bereiche"
          },
          {
            "code": {
              "coding": [
                {
                  "code": "51958-7",
                  "system": "http://loinc.org"
                }
              ]
            },
            "valueCodeableConcept": {
              "coding": [
                {
                  "code": "NM_000251.2",
                  "system": "http://www.ncbi.nlm.nih.gov/refseq"
                }
              ]
            }
          }
        ],
        "status": "final",
        "subject": {
          "reference": "Patient/mii-exa-molgen-patient-srcc"
        },
        "performer": [
          {
            "reference": "Practitioner/mii-exa-molgen-practitioner-lab"
          }
        ],
        "method": {
          "coding": [
            {
              "code": "LA26398-0",
              "system": "http://loinc.org",
              "display": "Sequencing"
            }
          ]
        },
        "specimen": {
          "reference": "Specimen/mii-exa-molgen-specimen-srcc"
        },
        "device": {
          "reference": "Device/mii-exa-molgen-device-sequencer"
        }
      },
      "request": {
        "method": "PUT",
        "url": "Observation/mii-exa-molgen-untersuchte-region-srcc-msh2"
      }
    },
    {
      "fullUrl": "https://www.medizininformatik-initiative.de/fhir/mii-exa-molgen-untersuchte-region-srcc-msh3",
      "resource": {
        "resourceType": "Observation",
        "id": "mii-exa-molgen-untersuchte-region-srcc-msh3",
        "meta": {
          "profile": [
            "https://www.medizininformatik-initiative.de/fhir/ext/modul-molgen/StructureDefinition/untersuchte-region",
            "http://hl7.org/fhir/uv/genomics-reporting/StructureDefinition/region-studied"
          ]
        },
        "code": {
          "coding": [
            {
              "system": "http://loinc.org",
              "code": "53041-0",
              "display": "DNA region of interest panel"
            }
          ]
        },
        "category": [
          {
            "coding": [
              {
                "system": "http://terminology.hl7.org/CodeSystem/observation-category",
                "code": "laboratory",
                "display": "Laboratory"
              }
            ]
          }
        ],
        "component": [
          {
            "code": {
              "coding": [
                {
                  "system": "http://loinc.org",
                  "code": "48018-6",
                  "display": "Gene studied [ID]"
                }
              ]
            },
            "valueCodeableConcept": {
              "coding": [
                {
                  "code": "HGNC:7326",
                  "system": "http://www.genenames.org/geneId",
                  "display": "MSH3"
                }
              ]
            }
          },
          {
            "code": {
              "coding": [
                {
                  "system": "http://loinc.org",
                  "code": "81293-3",
                  "display": "Description of ranges of DNA sequences examined"
                }
              ]
            },
            "valueString": "direkte Sequenzierung der codierenden Exons inkl. flankierender intronischer Bereiche"
          },
          {
            "code": {
              "coding": [
                {
                  "code": "51958-7",
                  "system": "http://loinc.org"
                }
              ]
            },
            "valueCodeableConcept": {
              "coding": [
                {
                  "code": "NM_002439.4",
                  "system": "http://www.ncbi.nlm.nih.gov/refseq"
                }
              ]
            }
          }
        ],
        "status": "final",
        "subject": {
          "reference": "Patient/mii-exa-molgen-patient-srcc"
        },
        "performer": [
          {
            "reference": "Practitioner/mii-exa-molgen-practitioner-lab"
          }
        ],
        "method": {
          "coding": [
            {
              "code": "LA26398-0",
              "system": "http://loinc.org",
              "display": "Sequencing"
            }
          ]
        },
        "specimen": {
          "reference": "Specimen/mii-exa-molgen-specimen-srcc"
        },
        "device": {
          "reference": "Device/mii-exa-molgen-device-sequencer"
        }
      },
      "request": {
        "method": "PUT",
        "url": "Observation/mii-exa-molgen-untersuchte-region-srcc-msh3"
      }
    },
    {
      "fullUrl": "https://www.medizininformatik-initiative.de/fhir/mii-exa-molgen-untersuchte-region-srcc-msh6",
      "resource": {
        "resourceType": "Observation",
        "id": "mii-exa-molgen-untersuchte-region-srcc-msh6",
        "meta": {
          "profile": [
            "https://www.medizininformatik-initiative.de/fhir/ext/modul-molgen/StructureDefinition/untersuchte-region",
            "http://hl7.org/fhir/uv/genomics-reporting/StructureDefinition/region-studied"
          ]
        },
        "code": {
          "coding": [
            {
              "system": "http://loinc.org",
              "code": "53041-0",
              "display": "DNA region of interest panel"
            }
          ]
        },
        "category": [
          {
            "coding": [
              {
                "system": "http://terminology.hl7.org/CodeSystem/observation-category",
                "code": "laboratory",
                "display": "Laboratory"
              }
            ]
          }
        ],
        "component": [
          {
            "code": {
              "coding": [
                {
                  "system": "http://loinc.org",
                  "code": "48018-6",
                  "display": "Gene studied [ID]"
                }
              ]
            },
            "valueCodeableConcept": {
              "coding": [
                {
                  "code": "HGNC:7329",
                  "system": "http://www.genenames.org/geneId",
                  "display": "MSH6"
                }
              ]
            }
          },
          {
            "code": {
              "coding": [
                {
                  "system": "http://loinc.org",
                  "code": "81293-3",
                  "display": "Description of ranges of DNA sequences examined"
                }
              ]
            },
            "valueString": "direkte Sequenzierung der codierenden Exons inkl. flankierender intronischer Bereiche"
          },
          {
            "code": {
              "coding": [
                {
                  "code": "51958-7",
                  "system": "http://loinc.org"
                }
              ]
            },
            "valueCodeableConcept": {
              "coding": [
                {
                  "code": "NM_000179.2",
                  "system": "http://www.ncbi.nlm.nih.gov/refseq"
                }
              ]
            }
          }
        ],
        "status": "final",
        "subject": {
          "reference": "Patient/mii-exa-molgen-patient-srcc"
        },
        "performer": [
          {
            "reference": "Practitioner/mii-exa-molgen-practitioner-lab"
          }
        ],
        "method": {
          "coding": [
            {
              "code": "LA26398-0",
              "system": "http://loinc.org",
              "display": "Sequencing"
            }
          ]
        },
        "specimen": {
          "reference": "Specimen/mii-exa-molgen-specimen-srcc"
        },
        "device": {
          "reference": "Device/mii-exa-molgen-device-sequencer"
        }
      },
      "request": {
        "method": "PUT",
        "url": "Observation/mii-exa-molgen-untersuchte-region-srcc-msh6"
      }
    },
    {
      "fullUrl": "https://www.medizininformatik-initiative.de/fhir/mii-exa-molgen-untersuchte-region-srcc-mutyh",
      "resource": {
        "resourceType": "Observation",
        "id": "mii-exa-molgen-untersuchte-region-srcc-mutyh",
        "meta": {
          "profile": [
            "https://www.medizininformatik-initiative.de/fhir/ext/modul-molgen/StructureDefinition/untersuchte-region",
            "http://hl7.org/fhir/uv/genomics-reporting/StructureDefinition/region-studied"
          ]
        },
        "code": {
          "coding": [
            {
              "system": "http://loinc.org",
              "code": "53041-0",
              "display": "DNA region of interest panel"
            }
          ]
        },
        "category": [
          {
            "coding": [
              {
                "system": "http://terminology.hl7.org/CodeSystem/observation-category",
                "code": "laboratory",
                "display": "Laboratory"
              }
            ]
          }
        ],
        "component": [
          {
            "code": {
              "coding": [
                {
                  "system": "http://loinc.org",
                  "code": "48018-6",
                  "display": "Gene studied [ID]"
                }
              ]
            },
            "valueCodeableConcept": {
              "coding": [
                {
                  "code": "HGNC:7527",
                  "system": "http://www.genenames.org/geneId",
                  "display": "MUTYH"
                }
              ]
            }
          },
          {
            "code": {
              "coding": [
                {
                  "system": "http://loinc.org",
                  "code": "81293-3",
                  "display": "Description of ranges of DNA sequences examined"
                }
              ]
            },
            "valueString": "direkte Sequenzierung der codierenden Exons inkl. flankierender intronischer Bereiche"
          },
          {
            "code": {
              "coding": [
                {
                  "code": "51958-7",
                  "system": "http://loinc.org"
                }
              ]
            },
            "valueCodeableConcept": {
              "coding": [
                {
                  "code": "NM_001128425.1",
                  "system": "http://www.ncbi.nlm.nih.gov/refseq"
                }
              ]
            }
          }
        ],
        "status": "final",
        "subject": {
          "reference": "Patient/mii-exa-molgen-patient-srcc"
        },
        "performer": [
          {
            "reference": "Practitioner/mii-exa-molgen-practitioner-lab"
          }
        ],
        "method": {
          "coding": [
            {
              "code": "LA26398-0",
              "system": "http://loinc.org",
              "display": "Sequencing"
            }
          ]
        },
        "specimen": {
          "reference": "Specimen/mii-exa-molgen-specimen-srcc"
        },
        "device": {
          "reference": "Device/mii-exa-molgen-device-sequencer"
        }
      },
      "request": {
        "method": "PUT",
        "url": "Observation/mii-exa-molgen-untersuchte-region-srcc-mutyh"
      }
    },
    {
      "fullUrl": "https://www.medizininformatik-initiative.de/fhir/mii-exa-molgen-untersuchte-region-srcc-nthl1",
      "resource": {
        "resourceType": "Observation",
        "id": "mii-exa-molgen-untersuchte-region-srcc-nthl1",
        "meta": {
          "profile": [
            "https://www.medizininformatik-initiative.de/fhir/ext/modul-molgen/StructureDefinition/untersuchte-region",
            "http://hl7.org/fhir/uv/genomics-reporting/StructureDefinition/region-studied"
          ]
        },
        "code": {
          "coding": [
            {
              "system": "http://loinc.org",
              "code": "53041-0",
              "display": "DNA region of interest panel"
            }
          ]
        },
        "category": [
          {
            "coding": [
              {
                "system": "http://terminology.hl7.org/CodeSystem/observation-category",
                "code": "laboratory",
                "display": "Laboratory"
              }
            ]
          }
        ],
        "component": [
          {
            "code": {
              "coding": [
                {
                  "system": "http://loinc.org",
                  "code": "48018-6",
                  "display": "Gene studied [ID]"
                }
              ]
            },
            "valueCodeableConcept": {
              "coding": [
                {
                  "code": "HGNC:8028",
                  "system": "http://www.genenames.org/geneId",
                  "display": "NTHL1"
                }
              ]
            }
          },
          {
            "code": {
              "coding": [
                {
                  "system": "http://loinc.org",
                  "code": "81293-3",
                  "display": "Description of ranges of DNA sequences examined"
                }
              ]
            },
            "valueString": "direkte Sequenzierung der codierenden Exons inkl. flankierender intronischer Bereiche"
          },
          {
            "code": {
              "coding": [
                {
                  "code": "51958-7",
                  "system": "http://loinc.org"
                }
              ]
            },
            "valueCodeableConcept": {
              "coding": [
                {
                  "code": "NM_002528.7",
                  "system": "http://www.ncbi.nlm.nih.gov/refseq"
                }
              ]
            }
          }
        ],
        "status": "final",
        "subject": {
          "reference": "Patient/mii-exa-molgen-patient-srcc"
        },
        "performer": [
          {
            "reference": "Practitioner/mii-exa-molgen-practitioner-lab"
          }
        ],
        "method": {
          "coding": [
            {
              "code": "LA26398-0",
              "system": "http://loinc.org",
              "display": "Sequencing"
            }
          ]
        },
        "specimen": {
          "reference": "Specimen/mii-exa-molgen-specimen-srcc"
        },
        "device": {
          "reference": "Device/mii-exa-molgen-device-sequencer"
        }
      },
      "request": {
        "method": "PUT",
        "url": "Observation/mii-exa-molgen-untersuchte-region-srcc-nthl1"
      }
    },
    {
      "fullUrl": "https://www.medizininformatik-initiative.de/fhir/mii-exa-molgen-untersuchte-region-srcc-pms2",
      "resource": {
        "resourceType": "Observation",
        "id": "mii-exa-molgen-untersuchte-region-srcc-pms2",
        "meta": {
          "profile": [
            "https://www.medizininformatik-initiative.de/fhir/ext/modul-molgen/StructureDefinition/untersuchte-region",
            "http://hl7.org/fhir/uv/genomics-reporting/StructureDefinition/region-studied"
          ]
        },
        "code": {
          "coding": [
            {
              "system": "http://loinc.org",
              "code": "53041-0",
              "display": "DNA region of interest panel"
            }
          ]
        },
        "category": [
          {
            "coding": [
              {
                "system": "http://terminology.hl7.org/CodeSystem/observation-category",
                "code": "laboratory",
                "display": "Laboratory"
              }
            ]
          }
        ],
        "component": [
          {
            "code": {
              "coding": [
                {
                  "system": "http://loinc.org",
                  "code": "48018-6",
                  "display": "Gene studied [ID]"
                }
              ]
            },
            "valueCodeableConcept": {
              "coding": [
                {
                  "code": "HGNC:9122",
                  "system": "http://www.genenames.org/geneId",
                  "display": "PMS2"
                }
              ]
            }
          },
          {
            "code": {
              "coding": [
                {
                  "system": "http://loinc.org",
                  "code": "81293-3",
                  "display": "Description of ranges of DNA sequences examined"
                }
              ]
            },
            "valueString": "direkte Sequenzierung der codierenden Exons inkl. flankierender intronischer Bereiche"
          },
          {
            "code": {
              "coding": [
                {
                  "code": "51958-7",
                  "system": "http://loinc.org"
                }
              ]
            },
            "valueCodeableConcept": {
              "coding": [
                {
                  "code": "NM_000535.5",
                  "system": "http://www.ncbi.nlm.nih.gov/refseq"
                }
              ]
            }
          }
        ],
        "status": "final",
        "subject": {
          "reference": "Patient/mii-exa-molgen-patient-srcc"
        },
        "performer": [
          {
            "reference": "Practitioner/mii-exa-molgen-practitioner-lab"
          }
        ],
        "method": {
          "coding": [
            {
              "code": "LA26398-0",
              "system": "http://loinc.org",
              "display": "Sequencing"
            }
          ]
        },
        "specimen": {
          "reference": "Specimen/mii-exa-molgen-specimen-srcc"
        },
        "device": {
          "reference": "Device/mii-exa-molgen-device-sequencer"
        }
      },
      "request": {
        "method": "PUT",
        "url": "Observation/mii-exa-molgen-untersuchte-region-srcc-pms2"
      }
    },
    {
      "fullUrl": "https://www.medizininformatik-initiative.de/fhir/mii-exa-molgen-untersuchte-region-srcc-pold1",
      "resource": {
        "resourceType": "Observation",
        "id": "mii-exa-molgen-untersuchte-region-srcc-pold1",
        "meta": {
          "profile": [
            "https://www.medizininformatik-initiative.de/fhir/ext/modul-molgen/StructureDefinition/untersuchte-region",
            "http://hl7.org/fhir/uv/genomics-reporting/StructureDefinition/region-studied"
          ]
        },
        "code": {
          "coding": [
            {
              "system": "http://loinc.org",
              "code": "53041-0",
              "display": "DNA region of interest panel"
            }
          ]
        },
        "category": [
          {
            "coding": [
              {
                "system": "http://terminology.hl7.org/CodeSystem/observation-category",
                "code": "laboratory",
                "display": "Laboratory"
              }
            ]
          }
        ],
        "component": [
          {
            "code": {
              "coding": [
                {
                  "system": "http://loinc.org",
                  "code": "48018-6",
                  "display": "Gene studied [ID]"
                }
              ]
            },
            "valueCodeableConcept": {
              "coding": [
                {
                  "code": "HGNC:9175",
                  "system": "http://www.genenames.org/geneId",
                  "display": "POLD1"
                }
              ]
            }
          },
          {
            "code": {
              "coding": [
                {
                  "system": "http://loinc.org",
                  "code": "81293-3",
                  "display": "Description of ranges of DNA sequences examined"
                }
              ]
            },
            "valueString": "direkte Sequenzierung der codierenden Exons inkl. flankierender intronischer Bereiche"
          },
          {
            "code": {
              "coding": [
                {
                  "code": "51958-7",
                  "system": "http://loinc.org"
                }
              ]
            },
            "valueCodeableConcept": {
              "coding": [
                {
                  "code": "NM_001256849.1",
                  "system": "http://www.ncbi.nlm.nih.gov/refseq"
                }
              ]
            }
          }
        ],
        "status": "final",
        "subject": {
          "reference": "Patient/mii-exa-molgen-patient-srcc"
        },
        "performer": [
          {
            "reference": "Practitioner/mii-exa-molgen-practitioner-lab"
          }
        ],
        "method": {
          "coding": [
            {
              "code": "LA26398-0",
              "system": "http://loinc.org",
              "display": "Sequencing"
            }
          ]
        },
        "specimen": {
          "reference": "Specimen/mii-exa-molgen-specimen-srcc"
        },
        "device": {
          "reference": "Device/mii-exa-molgen-device-sequencer"
        }
      },
      "request": {
        "method": "PUT",
        "url": "Observation/mii-exa-molgen-untersuchte-region-srcc-pold1"
      }
    },
    {
      "fullUrl": "https://www.medizininformatik-initiative.de/fhir/mii-exa-molgen-untersuchte-region-srcc-pole",
      "resource": {
        "resourceType": "Observation",
        "id": "mii-exa-molgen-untersuchte-region-srcc-pole",
        "meta": {
          "profile": [
            "https://www.medizininformatik-initiative.de/fhir/ext/modul-molgen/StructureDefinition/untersuchte-region",
            "http://hl7.org/fhir/uv/genomics-reporting/StructureDefinition/region-studied"
          ]
        },
        "code": {
          "coding": [
            {
              "system": "http://loinc.org",
              "code": "53041-0",
              "display": "DNA region of interest panel"
            }
          ]
        },
        "category": [
          {
            "coding": [
              {
                "system": "http://terminology.hl7.org/CodeSystem/observation-category",
                "code": "laboratory",
                "display": "Laboratory"
              }
            ]
          }
        ],
        "component": [
          {
            "code": {
              "coding": [
                {
                  "system": "http://loinc.org",
                  "code": "48018-6",
                  "display": "Gene studied [ID]"
                }
              ]
            },
            "valueCodeableConcept": {
              "coding": [
                {
                  "code": "HGNC:9177",
                  "system": "http://www.genenames.org/geneId",
                  "display": "POLE"
                }
              ]
            }
          },
          {
            "code": {
              "coding": [
                {
                  "system": "http://loinc.org",
                  "code": "81293-3",
                  "display": "Description of ranges of DNA sequences examined"
                }
              ]
            },
            "valueString": "direkte Sequenzierung der codierenden Exons inkl. flankierender intronischer Bereiche"
          },
          {
            "code": {
              "coding": [
                {
                  "code": "51958-7",
                  "system": "http://loinc.org"
                }
              ]
            },
            "valueCodeableConcept": {
              "coding": [
                {
                  "code": "NM_006231.3",
                  "system": "http://www.ncbi.nlm.nih.gov/refseq"
                }
              ]
            }
          }
        ],
        "status": "final",
        "subject": {
          "reference": "Patient/mii-exa-molgen-patient-srcc"
        },
        "performer": [
          {
            "reference": "Practitioner/mii-exa-molgen-practitioner-lab"
          }
        ],
        "method": {
          "coding": [
            {
              "code": "LA26398-0",
              "system": "http://loinc.org",
              "display": "Sequencing"
            }
          ]
        },
        "specimen": {
          "reference": "Specimen/mii-exa-molgen-specimen-srcc"
        },
        "device": {
          "reference": "Device/mii-exa-molgen-device-sequencer"
        }
      },
      "request": {
        "method": "PUT",
        "url": "Observation/mii-exa-molgen-untersuchte-region-srcc-pole"
      }
    },
    {
      "fullUrl": "https://www.medizininformatik-initiative.de/fhir/mii-exa-molgen-untersuchte-region-srcc-smad4",
      "resource": {
        "resourceType": "Observation",
        "id": "mii-exa-molgen-untersuchte-region-srcc-smad4",
        "meta": {
          "profile": [
            "https://www.medizininformatik-initiative.de/fhir/ext/modul-molgen/StructureDefinition/untersuchte-region",
            "http://hl7.org/fhir/uv/genomics-reporting/StructureDefinition/region-studied"
          ]
        },
        "code": {
          "coding": [
            {
              "system": "http://loinc.org",
              "code": "53041-0",
              "display": "DNA region of interest panel"
            }
          ]
        },
        "category": [
          {
            "coding": [
              {
                "system": "http://terminology.hl7.org/CodeSystem/observation-category",
                "code": "laboratory",
                "display": "Laboratory"
              }
            ]
          }
        ],
        "component": [
          {
            "code": {
              "coding": [
                {
                  "system": "http://loinc.org",
                  "code": "48018-6",
                  "display": "Gene studied [ID]"
                }
              ]
            },
            "valueCodeableConcept": {
              "coding": [
                {
                  "code": "HGNC:6770",
                  "system": "http://www.genenames.org/geneId",
                  "display": "SMAD4"
                }
              ]
            }
          },
          {
            "code": {
              "coding": [
                {
                  "system": "http://loinc.org",
                  "code": "81293-3",
                  "display": "Description of ranges of DNA sequences examined"
                }
              ]
            },
            "valueString": "direkte Sequenzierung der codierenden Exons inkl. flankierender intronischer Bereiche"
          },
          {
            "code": {
              "coding": [
                {
                  "code": "51958-7",
                  "system": "http://loinc.org"
                }
              ]
            },
            "valueCodeableConcept": {
              "coding": [
                {
                  "code": "NM_005359.5",
                  "system": "http://www.ncbi.nlm.nih.gov/refseq"
                }
              ]
            }
          }
        ],
        "status": "final",
        "subject": {
          "reference": "Patient/mii-exa-molgen-patient-srcc"
        },
        "performer": [
          {
            "reference": "Practitioner/mii-exa-molgen-practitioner-lab"
          }
        ],
        "method": {
          "coding": [
            {
              "code": "LA26398-0",
              "system": "http://loinc.org",
              "display": "Sequencing"
            }
          ]
        },
        "specimen": {
          "reference": "Specimen/mii-exa-molgen-specimen-srcc"
        },
        "device": {
          "reference": "Device/mii-exa-molgen-device-sequencer"
        }
      },
      "request": {
        "method": "PUT",
        "url": "Observation/mii-exa-molgen-untersuchte-region-srcc-smad4"
      }
    },
    {
      "fullUrl": "https://www.medizininformatik-initiative.de/fhir/mii-exa-molgen-untersuchte-region-srcc-stk11",
      "resource": {
        "resourceType": "Observation",
        "id": "mii-exa-molgen-untersuchte-region-srcc-stk11",
        "meta": {
          "profile": [
            "https://www.medizininformatik-initiative.de/fhir/ext/modul-molgen/StructureDefinition/untersuchte-region",
            "http://hl7.org/fhir/uv/genomics-reporting/StructureDefinition/region-studied"
          ]
        },
        "code": {
          "coding": [
            {
              "system": "http://loinc.org",
              "code": "53041-0",
              "display": "DNA region of interest panel"
            }
          ]
        },
        "category": [
          {
            "coding": [
              {
                "system": "http://terminology.hl7.org/CodeSystem/observation-category",
                "code": "laboratory",
                "display": "Laboratory"
              }
            ]
          }
        ],
        "component": [
          {
            "code": {
              "coding": [
                {
                  "system": "http://loinc.org",
                  "code": "48018-6",
                  "display": "Gene studied [ID]"
                }
              ]
            },
            "valueCodeableConcept": {
              "coding": [
                {
                  "code": "HGNC:11389",
                  "system": "http://www.genenames.org/geneId",
                  "display": "STK11"
                }
              ]
            }
          },
          {
            "code": {
              "coding": [
                {
                  "system": "http://loinc.org",
                  "code": "81293-3",
                  "display": "Description of ranges of DNA sequences examined"
                }
              ]
            },
            "valueString": "direkte Sequenzierung der codierenden Exons inkl. flankierender intronischer Bereiche"
          },
          {
            "code": {
              "coding": [
                {
                  "code": "51958-7",
                  "system": "http://loinc.org"
                }
              ]
            },
            "valueCodeableConcept": {
              "coding": [
                {
                  "code": "NM_000455.4",
                  "system": "http://www.ncbi.nlm.nih.gov/refseq"
                }
              ]
            }
          }
        ],
        "status": "final",
        "subject": {
          "reference": "Patient/mii-exa-molgen-patient-srcc"
        },
        "performer": [
          {
            "reference": "Practitioner/mii-exa-molgen-practitioner-lab"
          }
        ],
        "method": {
          "coding": [
            {
              "code": "LA26398-0",
              "system": "http://loinc.org",
              "display": "Sequencing"
            }
          ]
        },
        "specimen": {
          "reference": "Specimen/mii-exa-molgen-specimen-srcc"
        },
        "device": {
          "reference": "Device/mii-exa-molgen-device-sequencer"
        }
      },
      "request": {
        "method": "PUT",
        "url": "Observation/mii-exa-molgen-untersuchte-region-srcc-stk11"
      }
    },
    {
      "fullUrl": "https://www.medizininformatik-initiative.de/fhir/mii-exa-molgen-untersuchte-region-srcc-tp53",
      "resource": {
        "resourceType": "Observation",
        "id": "mii-exa-molgen-untersuchte-region-srcc-tp53",
        "meta": {
          "profile": [
            "https://www.medizininformatik-initiative.de/fhir/ext/modul-molgen/StructureDefinition/untersuchte-region",
            "http://hl7.org/fhir/uv/genomics-reporting/StructureDefinition/region-studied"
          ]
        },
        "code": {
          "coding": [
            {
              "system": "http://loinc.org",
              "code": "53041-0",
              "display": "DNA region of interest panel"
            }
          ]
        },
        "category": [
          {
            "coding": [
              {
                "system": "http://terminology.hl7.org/CodeSystem/observation-category",
                "code": "laboratory",
                "display": "Laboratory"
              }
            ]
          }
        ],
        "component": [
          {
            "code": {
              "coding": [
                {
                  "system": "http://loinc.org",
                  "code": "48018-6",
                  "display": "Gene studied [ID]"
                }
              ]
            },
            "valueCodeableConcept": {
              "coding": [
                {
                  "code": "HGNC:11998",
                  "system": "http://www.genenames.org/geneId",
                  "display": "TP53"
                }
              ]
            }
          },
          {
            "code": {
              "coding": [
                {
                  "system": "http://loinc.org",
                  "code": "81293-3",
                  "display": "Description of ranges of DNA sequences examined"
                }
              ]
            },
            "valueString": "direkte Sequenzierung der codierenden Exons inkl. flankierender intronischer Bereiche"
          },
          {
            "code": {
              "coding": [
                {
                  "code": "51958-7",
                  "system": "http://loinc.org"
                }
              ]
            },
            "valueCodeableConcept": {
              "coding": [
                {
                  "code": "NM_000546.5",
                  "system": "http://www.ncbi.nlm.nih.gov/refseq"
                }
              ]
            }
          }
        ],
        "status": "final",
        "subject": {
          "reference": "Patient/mii-exa-molgen-patient-srcc"
        },
        "performer": [
          {
            "reference": "Practitioner/mii-exa-molgen-practitioner-lab"
          }
        ],
        "method": {
          "coding": [
            {
              "code": "LA26398-0",
              "system": "http://loinc.org",
              "display": "Sequencing"
            }
          ]
        },
        "specimen": {
          "reference": "Specimen/mii-exa-molgen-specimen-srcc"
        },
        "device": {
          "reference": "Device/mii-exa-molgen-device-sequencer"
        }
      },
      "request": {
        "method": "PUT",
        "url": "Observation/mii-exa-molgen-untersuchte-region-srcc-tp53"
      }
    },
    {
      "fullUrl": "https://www.medizininformatik-initiative.de/fhir/mii-exa-molgen-untersuchte-region-srcc-ctnna1",
      "resource": {
        "resourceType": "Observation",
        "id": "mii-exa-molgen-untersuchte-region-srcc-ctnna1",
        "meta": {
          "profile": [
            "https://www.medizininformatik-initiative.de/fhir/ext/modul-molgen/StructureDefinition/untersuchte-region",
            "http://hl7.org/fhir/uv/genomics-reporting/StructureDefinition/region-studied"
          ]
        },
        "code": {
          "coding": [
            {
              "system": "http://loinc.org",
              "code": "53041-0",
              "display": "DNA region of interest panel"
            }
          ]
        },
        "category": [
          {
            "coding": [
              {
                "system": "http://terminology.hl7.org/CodeSystem/observation-category",
                "code": "laboratory",
                "display": "Laboratory"
              }
            ]
          }
        ],
        "component": [
          {
            "code": {
              "coding": [
                {
                  "system": "http://loinc.org",
                  "code": "48018-6",
                  "display": "Gene studied [ID]"
                }
              ]
            },
            "valueCodeableConcept": {
              "coding": [
                {
                  "code": "HGNC:2509",
                  "system": "http://www.genenames.org/geneId",
                  "display": "CTNNA1"
                }
              ]
            }
          },
          {
            "code": {
              "coding": [
                {
                  "system": "http://loinc.org",
                  "code": "81293-3",
                  "display": "Description of ranges of DNA sequences examined"
                }
              ]
            },
            "valueString": "direkte Sequenzierung der codierenden Exons inkl. flankierender intronischer Bereiche"
          },
          {
            "code": {
              "coding": [
                {
                  "code": "51958-7",
                  "system": "http://loinc.org"
                }
              ]
            },
            "valueCodeableConcept": {
              "coding": [
                {
                  "code": "NM_001903.5",
                  "system": "http://www.ncbi.nlm.nih.gov/refseq"
                }
              ]
            }
          }
        ],
        "status": "final",
        "subject": {
          "reference": "Patient/mii-exa-molgen-patient-srcc"
        },
        "performer": [
          {
            "reference": "Practitioner/mii-exa-molgen-practitioner-lab"
          }
        ],
        "method": {
          "coding": [
            {
              "code": "LA26398-0",
              "system": "http://loinc.org",
              "display": "Sequencing"
            }
          ]
        },
        "specimen": {
          "reference": "Specimen/mii-exa-molgen-specimen-srcc"
        },
        "device": {
          "reference": "Device/mii-exa-molgen-device-sequencer"
        }
      },
      "request": {
        "method": "PUT",
        "url": "Observation/mii-exa-molgen-untersuchte-region-srcc-ctnna1"
      }
    }
  ]
}
